acc_x,acc_y,acc_z,gyro_x,gyro_y,gyro_z,timestamp
-0.47377887,3.4624143,9.175877,0.012370021,-0.020922136,0.0047342055,20240202_145350_248
-0.4642076,3.4624143,9.132806,0.011148291,-0.022143865,0.0035124752,20240202_145350_250
-0.44985065,3.438486,9.123235,0.011148291,-0.019700404,0.0047342055,20240202_145350_251
-0.4354937,3.4337006,9.099306,0.011148291,-0.022143865,0.0035124752,20240202_145350_252
-0.4354937,3.4289148,9.094521,0.00992656,-0.022143865,0.0035124752,20240202_145350_253
-0.41635114,3.4097722,9.094521,0.0062613687,-0.016187929,0.0035124752,20240202_145350_254
-0.41635114,3.4097722,9.075378,0.0038179078,-0.014966198,0.0035124752,20240202_145350_259
-0.41635114,3.4241292,9.080164,0.0013744468,-0.0125227375,0.0035124752,20240202_145350_260
-0.42592242,3.4337006,9.05145,-0.0035124752,-0.0027488936,0.0035124752,20240202_145350_261
-0.41156548,3.4432719,9.032308,-0.005955936,-0.003970624,0.0047342055,20240202_145350_261
-0.43070808,3.4672,9.041879,-0.008399397,-0.0015271631,0.0035124752,20240202_145350_261
-0.4354937,3.4863427,9.05145,-0.012064588,0.004428773,0.0047342055,20240202_145350_262
-0.4354937,3.5150564,9.041879,-0.012064588,0.009315695,0.0047342055,20240202_145350_262
-0.44985065,3.5150564,9.065806,-0.01450805,0.008093964,0.005955936,20240202_145350_263
-0.4354937,3.5294135,9.075378,-0.01572978,0.011759156,0.005955936,20240202_145350_263
-0.44506502,3.5389848,9.104092,-0.01450805,0.012980887,0.0047342055,20240202_145350_264
-0.4642076,3.5246277,9.108877,-0.01572978,0.011759156,0.0071776668,20240202_145350_264
-0.44985065,3.534199,9.118449,-0.01817324,0.012980887,0.0071776668,20240202_145350_264
-0.45942193,3.5389848,9.104092,-0.01695151,0.011759156,0.0096211275,20240202_145350_265
-0.45942193,3.5437703,9.108877,-0.01817324,0.0032070426,0.010842858,20240202_145350_265
-0.44506502,3.5389848,9.108877,-0.01695151,0.001985312,0.012064588,20240202_145350_266
-0.44506502,3.548556,9.0849495,-0.01695151,-0.0015271631,0.01450805,20240202_145350_291
-0.4546363,3.548556,9.080164,-0.01695151,-0.008857546,0.01695151,20240202_145350_292
-0.4546363,3.5581272,9.104092,-0.01572978,-0.010079277,0.019394971,20240202_145350_293
-0.44506502,3.5581272,9.099306,-0.01572978,-0.005192355,0.021838432,20240202_145350_294
-0.4354937,3.562913,9.104092,-0.01572978,-0.011301007,0.025503624,20240202_145350_295
-0.44027936,3.5437703,9.118449,-0.01572978,-0.006414085,0.024281893,20240202_145350_297
-0.44027936,3.5581272,9.132806,-0.01572978,-0.0076358155,0.027947085,20240202_145350_298
-0.44985065,3.5581272,9.113664,-0.01695151,-0.003970624,0.027947085,20240202_145350_299
-0.44506502,3.548556,9.104092,-0.01817324,-0.003970624,0.030390546,20240202_145350_300
-0.44506502,3.5581272,9.0849495,-0.01695151,-3.0543262E-4,0.029168816,20240202_145350_302
-0.44985065,3.5724843,9.056235,-0.01817324,9.162979E-4,0.025503624,20240202_145350_303
-0.44027936,3.5820556,9.056235,-0.01695151,-3.0543262E-4,0.025503624,20240202_145350_304
-0.44027936,3.586841,9.075378,-0.019394971,-0.0027488936,0.020616703,20240202_145350_306
-0.4354937,3.5724843,9.094521,-0.01695151,9.162979E-4,0.020616703,20240202_145350_307
-0.4354937,3.5389848,9.108877,-0.01817324,0.008093964,0.019394971,20240202_145350_308
-0.40677986,3.5198421,9.113664,-0.019394971,0.004428773,0.01695151,20240202_145350_310
-0.40677986,3.5389848,9.104092,-0.019394971,0.004428773,0.01695151,20240202_145350_310
-0.41635114,3.534199,9.094521,-0.01817324,0.009315695,0.01450805,20240202_145350_311
-0.41635114,3.534199,9.080164,-0.01817324,0.009315695,0.01695151,20240202_145350_313
-0.41635114,3.5150564,9.070593,-0.01817324,7.6358154E-4,0.013286319,20240202_145350_315
-0.43070808,3.5198421,9.065806,-0.01450805,0.0056505036,0.012064588,20240202_145350_317
-0.43070808,3.5102708,9.070593,-0.01695151,7.6358154E-4,0.010842858,20240202_145350_319
-0.4211368,3.4767714,9.132806,-0.013286319,-0.0015271631,0.012064588,20240202_145350_320
-0.4354937,3.4672,9.171091,-0.012064588,0.0032070426,0.013286319,20240202_145350_321
-0.43070808,3.4480574,9.185448,-0.01450805,0.004428773,0.012064588,20240202_145350_322
-0.44985065,3.4576287,9.185448,-0.01450805,0.006872234,0.013286319,20240202_145350_323
-0.4546363,3.4576287,9.185448,-0.013286319,0.0032070426,0.012064588,20240202_145350_325
-0.44506502,3.4624143,9.171091,-0.010842858,0.0056505036,0.010842858,20240202_145350_334
-0.4546363,3.4719856,9.166306,-0.005955936,0.0032070426,0.0096211275,20240202_145350_335
-0.4642076,3.495914,9.142377,-0.0035124752,-0.0015271631,0.0071776668,20240202_145350_336
-0.4546363,3.495914,9.12802,0.0013744468,-3.0543262E-4,0.0071776668,20240202_145350_336
-0.44985065,3.5102708,9.147162,0.0025961774,0.008093964,0.005955936,20240202_145350_337
-0.4642076,3.505485,9.171091,0.0050396384,0.0021380284,0.0035124752,20240202_145350_337
-0.43070808,3.505485,9.132806,0.007483099,0.004428773,0.0036651916,20240202_145350_340
-0.44985065,3.505485,9.213564,0.0062613687,0.0021380284,0.0010690142,20240202_145350_343
-0.4546363,3.495914,9.166306,0.00992656,0.006872234,0.002443461,20240202_145350_343
-0.45942193,3.4911282,9.151948,0.007483099,0.0056505036,0.002443461,20240202_145350_345
-0.4642076,3.495914,9.132806,0.00870483,0.0056505036,0.002443461,20240202_145350_347
-0.4642076,3.481557,9.104092,0.0038179078,-0.006414085,0.0035124752,20240202_145350_349
-0.47856453,3.4863427,9.056235,0.007483099,-3.0543262E-4,0.0010690142,20240202_145350_352
-0.47377887,3.4863427,9.065806,0.007483099,-0.0027488936,0.0022907446,20240202_145350_354
-0.45942193,3.4863427,9.075378,0.0062613687,-0.0076358155,0.0010690142,20240202_145350_356
-0.47377887,3.505485,9.089735,0.0062613687,-0.0027488936,0.0010690142,20240202_145350_358
-0.46899325,3.495914,9.094521,0.007483099,-0.0015271631,0.0010690142,20240202_145350_360
-0.4546363,3.5198421,9.118449,0.0050396384,-0.006414085,0.0010690142,20240202_145350_362
-0.4642076,3.5150564,9.108877,1.5271631E-4,9.162979E-4,0.0010690142,20240202_145350_364
-0.4546363,3.495914,9.089735,-0.0022907446,-0.0027488936,0.0022907446,20240202_145350_366
-0.45942193,3.4672,9.099306,-0.0022907446,-0.005192355,0.0022907446,20240202_145350_368
-0.47856453,3.4672,9.104092,-0.0010690142,9.162979E-4,0.0047342055,20240202_145350_372
-0.47377887,3.5198421,9.065806,-0.0010690142,-0.0027488936,0.0047342055,20240202_145350_373
-0.47377887,3.562913,9.022736,-0.0022907446,-0.008857546,0.005955936,20240202_145350_375
-0.4642076,3.5964124,9.01795,-0.0010690142,-0.010079277,0.0047342055,20240202_145350_378
-0.45942193,3.5964124,9.041879,-0.0047342055,-0.0125227375,0.0047342055,20240202_145350_379
-0.44985065,3.5389848,9.099306,-0.008246681,-0.014966198,0.0047342055,20240202_145350_382
-0.4546363,3.5102708,9.123235,-0.005955936,-0.008857546,0.005955936,20240202_145350_383
-0.45942193,3.5006995,9.16152,-0.008399397,-0.005192355,0.0047342055,20240202_145350_386
-0.4642076,3.505485,9.156734,-0.005955936,-0.006414085,0.005955936,20240202_145350_388
-0.4642076,3.5198421,9.137591,-0.0071776668,-0.005192355,0.0047342055,20240202_145350_390
-0.46899325,3.5294135,9.099306,-0.0047342055,-0.0015271631,0.005955936,20240202_145350_392
-0.47377887,3.5246277,9.0849495,-0.0022907446,-0.010079277,0.0047342055,20240202_145350_394
-0.47377887,3.534199,9.080164,-0.0035124752,-0.008857546,0.0071776668,20240202_145350_397
-0.45942193,3.5389848,9.104092,1.5271631E-4,-0.003970624,0.008399397,20240202_145350_400
-0.45942193,3.534199,9.118449,1.5271631E-4,-0.010079277,0.008399397,20240202_145350_401
-0.4546363,3.5150564,9.142377,0.0013744468,-0.0027488936,0.010842858,20240202_145350_403
-0.4546363,3.5198421,9.137591,0.0025961774,-3.0543262E-4,0.0096211275,20240202_145350_406
-0.46899325,3.5246277,9.132806,0.0025961774,-0.006414085,0.010842858,20240202_145350_407
-0.45942193,3.5198421,9.132806,0.0025961774,9.162979E-4,0.012064588,20240202_145350_409
-0.44027936,3.5294135,9.12802,0.0025961774,-3.0543262E-4,0.010842858,20240202_145350_411
-0.4354937,3.5294135,9.108877,0.0050396384,-0.005192355,0.010842858,20240202_145350_414
-0.44027936,3.5294135,9.104092,0.0050396384,-0.003970624,0.0096211275,20240202_145350_416
-0.4211368,3.5389848,9.099306,0.0050396384,-0.0015271631,0.0096211275,20240202_145350_418
-0.43070808,3.534199,9.118449,0.0062613687,-0.010079277,0.0071776668,20240202_145350_421
-0.43070808,3.5294135,9.132806,0.00870483,-0.0015271631,0.005955936,20240202_145350_422
-0.4211368,3.5389848,9.147162,0.0062613687,9.162979E-4,0.005955936,20240202_145350_425
-0.43070808,3.5389848,9.137591,0.0038179078,-0.003970624,0.0047342055,20240202_145350_427
-0.4211368,3.5150564,9.113664,0.0050396384,-0.0027488936,0.0035124752,20240202_145350_429
-0.42592242,3.5150564,9.099306,0.0025961774,-0.0015271631,0.0010690142,20240202_145350_431
-0.42592242,3.5102708,9.089735,0.0038179078,-0.0015271631,0.0022907446,20240202_145350_433
-0.43070808,3.4911282,9.065806,0.0025961774,-0.003970624,0.0010690142,20240202_145350_435
-0.43070808,3.495914,9.0849495,0.0038179078,-0.003970624,0.0010690142,20240202_145350_437
-0.40677986,3.495914,9.094521,0.0025961774,-0.0027488936,-1.5271631E-4,20240202_145350_439
-0.41635114,3.5102708,9.094521,0.0013744468,-0.0076358155,0.0010690142,20240202_145350_441
-0.42592242,3.5198421,9.108877,1.5271631E-4,-0.0027488936,-0.0013744468,20240202_145350_444
-0.4211368,3.5246277,9.099306,0.0013744468,-0.0027488936,-0.0013744468,20240202_145350_447
-0.44027936,3.534199,9.123235,-0.0010690142,-0.003970624,-0.0013744468,20240202_145350_449
-0.44027936,3.534199,9.123235,0.0013744468,-3.0543262E-4,-0.0025961774,20240202_145350_450
-0.44027936,3.5294135,9.094521,0.0013744468,-0.0015271631,-0.0038179078,20240202_145350_453
-0.44027936,3.534199,9.094521,1.5271631E-4,-0.005192355,-0.0038179078,20240202_145350_455
-0.44506502,3.5246277,9.104092,0.0015271631,-0.003970624,-0.0062613687,20240202_145350_457
-0.4546363,3.5150564,9.099306,0.0013744468,-0.0015271631,-0.0038179078,20240202_145350_460
-0.45942193,3.534199,9.137591,-9.162979E-4,-0.005192355,-0.0050396384,20240202_145350_462
-0.4354937,3.5389848,9.142377,1.5271631E-4,-3.0543262E-4,-0.0050396384,20240202_145350_463
-0.4642076,3.5389848,9.156734,0.0013744468,-3.0543262E-4,-0.0050396384,20240202_145350_465
-0.44027936,3.5437703,9.151948,0.0013744468,9.162979E-4,-0.0050396384,20240202_145350_468
-0.42592242,3.548556,9.137591,1.5271631E-4,-0.0015271631,-0.0050396384,20240202_145350_470
-0.44985065,3.534199,9.113664,0.0025961774,9.162979E-4,-0.0062613687,20240202_145350_472
-0.45942193,3.534199,9.113664,0.0025961774,9.162979E-4,-0.0038179078,20240202_145350_474
-0.46899325,3.5198421,9.108877,0.0013744468,9.162979E-4,-0.0038179078,20240202_145350_476
-0.4642076,3.505485,9.099306,0.0025961774,0.0033597588,-0.0038179078,20240202_145350_479
-0.46899325,3.505485,9.108877,0.0013744468,-3.0543262E-4,-0.0013744468,20240202_145350_480
-0.4642076,3.5198421,9.104092,0.0025961774,0.0021380284,0.0010690142,20240202_145350_483
-0.4642076,3.5102708,9.123235,0.0025961774,0.010537425,0.0010690142,20240202_145350_485
-0.45942193,3.5389848,9.118449,0.0013744468,9.162979E-4,0.0010690142,20240202_145350_489
-0.46899325,3.534199,9.123235,0.0025961774,0.006872234,0.0022907446,20240202_145350_490
-0.4546363,3.534199,9.099306,0.0025961774,0.012980887,0.0022907446,20240202_145350_491
-0.4642076,3.5389848,9.113664,0.0013744468,0.00580322,0.0047342055,20240202_145350_493
-0.47377887,3.5389848,9.094521,1.5271631E-4,0.00580322,0.0047342055,20240202_145350_495
-0.4642076,3.5198421,9.094521,1.5271631E-4,0.009315695,0.005955936,20240202_145350_497
-0.4642076,3.5150564,9.0849495,1.5271631E-4,0.008093964,0.0047342055,20240202_145350_500
-0.46899325,3.5246277,9.099306,-0.0047342055,0.0056505036,0.005955936,20240202_145350_502
-0.4642076,3.5246277,9.099306,-0.0010690142,0.008093964,0.008399397,20240202_145350_504
-0.46899325,3.5150564,9.108877,-0.0047342055,0.004581489,0.0071776668,20240202_145350_506
-0.46899325,3.5150564,9.113664,-0.005955936,0.0033597588,0.008399397,20240202_145350_509
-0.46899325,3.5102708,9.108877,-0.0047342055,0.006872234,0.0096211275,20240202_145350_511
-0.46899325,3.5102708,9.108877,-0.0047342055,0.006872234,0.0096211275,20240202_145350_513
-0.45942193,3.505485,9.099306,-0.0010690142,0.004581489,0.010842858,20240202_145350_515
-0.4546363,3.5150564,9.094521,-0.0035124752,0.0033597588,0.010842858,20240202_145350_517
-0.44985065,3.5150564,9.080164,-0.0022907446,0.004581489,0.010842858,20240202_145350_520
-0.43070808,3.5198421,9.089735,-0.0010690142,-0.0015271631,0.012064588,20240202_145350_522
-0.44027936,3.5150564,9.099306,-0.0010690142,-0.0015271631,0.010842858,20240202_145350_524
-0.44506502,3.5006995,9.113664,-0.0035124752,-0.0015271631,0.012064588,20240202_145350_526
-0.44506502,3.5102708,9.118449,-0.0035124752,-0.005192355,0.0096211275,20240202_145350_528
-0.43070808,3.4911282,9.137591,-0.005955936,-3.0543262E-4,0.0096211275,20240202_145350_531
-0.43070808,3.4911282,9.12802,-0.0010690142,-3.0543262E-4,0.008399397,20240202_145350_532
-0.4211368,3.5006995,9.132806,-0.0010690142,0.0021380284,0.0071776668,20240202_145350_534
-0.41635114,3.505485,9.118449,-0.0022907446,0.0021380284,0.005955936,20240202_145350_536
-0.41635114,3.5150564,9.12802,-0.0010690142,0.0021380284,0.0035124752,20240202_145350_539
-0.4019942,3.5006995,9.137591,-0.0010690142,0.0021380284,0.0035124752,20240202_145350_541
-0.40677986,3.5006995,9.123235,1.5271631E-4,0.004581489,0.0010690142,20240202_145350_542
-0.4019942,3.505485,9.147162,-0.0010690142,0.0021380284,0.0010690142,20240202_145350_544
-0.41635114,3.495914,9.142377,-0.0010690142,0.0033597588,-0.0013744468,20240202_145350_547
-0.41156548,3.4911282,9.142377,1.5271631E-4,0.00580322,-0.0038179078,20240202_145350_549
-0.41635114,3.5006995,9.137591,0.0013744468,0.0021380284,-0.0038179078,20240202_145350_552
-0.41635114,3.5102708,9.132806,0.0038179078,0.004581489,-0.0062613687,20240202_145350_554
-0.40677986,3.5102708,9.108877,0.0062613687,0.004581489,-0.007483099,20240202_145350_555
-0.40677986,3.5150564,9.104092,0.0038179078,-3.0543262E-4,-0.00870483,20240202_145350_558
-0.43070808,3.5198421,9.123235,0.0062613687,0.0021380284,-0.00992656,20240202_145350_561
-0.43070808,3.5150564,9.142377,0.00870483,0.00580322,-0.011148291,20240202_145350_562
-0.43070808,3.5198421,9.156734,0.0050396384,0.004581489,-0.00870483,20240202_145350_564
-0.44027936,3.5102708,9.171091,0.0062613687,0.00580322,-0.00870483,20240202_145350_566
-0.46899325,3.5102708,9.142377,0.0062613687,0.008093964,-0.00870483,20240202_145350_568
-0.46899325,3.534199,9.12802,0.0062613687,0.008093964,-0.007483099,20240202_145350_571
-0.4833502,3.5294135,9.142377,0.007483099,0.009315695,-0.007483099,20240202_145350_573
-0.47377887,3.5198421,9.118449,0.00870483,0.009315695,-0.0061086523,20240202_145350_574
-0.4833502,3.5246277,9.099306,0.00870483,0.008246681,-0.0061086523,20240202_145350_577
-0.4881358,3.5246277,9.104092,0.011148291,0.009468411,-0.0036651916,20240202_145350_581
-0.5072784,3.534199,9.104092,0.011148291,0.010537425,-0.0012217305,20240202_145350_582
-0.5024927,3.505485,9.099306,0.00992656,0.008246681,-0.002443461,20240202_145350_585
-0.5072784,3.5150564,9.108877,0.00870483,0.008246681,-0.0,20240202_145350_585
-0.51206404,3.5294135,9.123235,0.00870483,0.0070249503,-0.0,20240202_145350_588
-0.5072784,3.505485,9.099306,0.0050396384,0.004581489,-1.5271631E-4,20240202_145350_590
-0.5072784,3.5198421,9.094521,0.007483099,0.00580322,0.002443461,20240202_145350_592
-0.4977071,3.5150564,9.075378,0.0050396384,-3.0543262E-4,0.0010690142,20240202_145350_594
-0.47856453,3.5150564,9.05145,0.0062613687,9.162979E-4,0.0022907446,20240202_145350_596
-0.47856453,3.505485,9.056235,0.0038179078,-0.0027488936,0.0022907446,20240202_145350_599
-0.47856453,3.5294135,9.080164,0.0038179078,-0.006414085,0.0035124752,20240202_145350_601
-0.4642076,3.5294135,9.099306,0.0038179078,-0.0015271631,0.0022907446,20240202_145350_603
-0.4642076,3.5294135,9.099306,0.0013744468,-0.003970624,0.0010690142,20240202_145350_605
-0.46899325,3.5246277,9.108877,-0.0010690142,-0.006414085,0.0035124752,20240202_145350_607
-0.47377887,3.534199,9.108877,-0.0022907446,-0.006414085,0.0010690142,20240202_145350_609
-0.46899325,3.5246277,9.108877,1.5271631E-4,-0.005192355,0.0022907446,20240202_145350_611
-0.4642076,3.5246277,9.070593,-0.0022907446,-0.008857546,0.0010690142,20240202_145350_613
-0.44985065,3.534199,9.0849495,-0.0010690142,-0.006414085,0.0010690142,20240202_145350_616
-0.44506502,3.5198421,9.0849495,-0.0010690142,-0.005192355,0.0010690142,20240202_145350_617
-0.44985065,3.5198421,9.104092,-0.0010690142,-0.0076358155,-1.5271631E-4,20240202_145350_620
-0.44027936,3.5294135,9.104092,-0.0035124752,-0.005192355,0.0022907446,20240202_145350_622
-0.4546363,3.5246277,9.108877,-0.0022907446,-0.0027488936,0.0010690142,20240202_145350_624
-0.44985065,3.5389848,9.123235,-0.0022907446,-0.003970624,0.0010690142,20240202_145350_626
-0.44027936,3.5437703,9.113664,-0.0035124752,-0.005192355,-1.5271631E-4,20240202_145350_628
-0.44506502,3.5437703,9.108877,-0.0047342055,-0.003970624,-0.0013744468,20240202_145350_631
-0.4546363,3.5294135,9.099306,-0.004581489,-0.0076358155,-1.5271631E-4,20240202_145350_633
-0.44027936,3.5198421,9.0849495,-0.0022907446,-0.006414085,-0.0013744468,20240202_145350_635
-0.43070808,3.534199,9.094521,-0.0035124752,-0.003970624,-1.5271631E-4,20240202_145350_637
-0.42592242,3.5102708,9.094521,-0.004581489,-0.008857546,-0.0025961774,20240202_145350_639
-0.4354937,3.5294135,9.104092,-0.00580322,-0.0076358155,-0.0013744468,20240202_145350_641
-0.43070808,3.534199,9.147162,-0.00580322,-0.003970624,-0.0013744468,20240202_145350_644
-0.44027936,3.5102708,9.16152,-0.0022907446,-0.0015271631,-0.0025961774,20240202_145350_646
-0.44985065,3.5102708,9.156734,-0.0035124752,-3.0543262E-4,-1.5271631E-4,20240202_145350_647
-0.45942193,3.5006995,9.147162,-0.0035124752,0.0033597588,-1.5271631E-4,20240202_145350_650
-0.44985065,3.505485,9.132806,-0.0022907446,0.009315695,0.0010690142,20240202_145350_652
-0.4546363,3.5150564,9.108877,1.5271631E-4,0.0033597588,-1.5271631E-4,20240202_145350_654
-0.45942193,3.5150564,9.108877,1.5271631E-4,0.004581489,0.0010690142,20240202_145350_658
-0.46899325,3.5150564,9.113664,0.0013744468,0.008093964,0.0035124752,20240202_145350_659
-0.46899325,3.5150564,9.113664,1.5271631E-4,0.0021380284,0.0022907446,20240202_145350_661
-0.46899325,3.505485,9.132806,0.0013744468,0.004581489,0.0047342055,20240202_145350_663
-0.4977071,3.5198421,9.147162,1.5271631E-4,0.00580322,0.0035124752,20240202_145350_665
-0.49292147,3.5198421,9.137591,-0.0022907446,0.0021380284,0.0071776668,20240202_145350_667
-0.4977071,3.5198421,9.151948,1.5271631E-4,0.0021380284,0.005955936,20240202_145350_669
-0.5024927,3.495914,9.104092,-0.0010690142,0.00580322,0.0071776668,20240202_145350_671
-0.5072784,3.5102708,9.089735,1.5271631E-4,-0.0015271631,0.008399397,20240202_145350_673
-0.51206404,3.4911282,9.085547,1.5271631E-4,-0.006414085,0.008399397,20240202_145350_675
-0.4881358,3.4911282,9.089735,1.5271631E-4,-0.0015271631,0.0096211275,20240202_145350_678
-0.49292147,3.5150564,9.113664,0.0013744468,-0.003970624,0.008399397,20240202_145350_680
-0.47856453,3.5102708,9.137591,0.0013744468,-0.0076358155,0.010842858,20240202_145350_683
-0.47856453,3.5294135,9.132806,0.0013744468,-3.0543262E-4,0.010842858,20240202_145350_684
-0.47856453,3.5389848,9.147162,-0.0010690142,-0.003970624,0.010842858,20240202_145350_686
-0.46899325,3.5246277,9.132806,-0.0010690142,-0.005192355,0.010842858,20240202_145350_689
-0.49292147,3.534199,9.123235,-0.0022907446,-3.0543262E-4,0.010842858,20240202_145350_691
-0.4977071,3.505485,9.108877,-0.0035124752,-0.0015271631,0.013286319,20240202_145350_693
-0.4833502,3.5150564,9.089735,-0.0010690142,-0.0076358155,0.012064588,20240202_145350_695
-0.47856453,3.495914,9.061021,0.0013744468,-0.006414085,0.01450805,20240202_145350_697
-0.4642076,3.505485,9.065806,1.5271631E-4,-0.011301007,0.012064588,20240202_145350_700
-0.45942193,3.5102708,9.061021,-0.0010690142,-0.014966198,0.01450805,20240202_145350_702
-0.44506502,3.5198421,9.0849495,0.0013744468,-0.0076358155,0.013286319,20240202_145350_704
-0.44506502,3.5389848,9.137591,1.5271631E-4,-0.0076358155,0.01450805,20240202_145350_705
-0.43070808,3.5389848,9.137591,-0.0022907446,-0.010079277,0.013286319,20240202_145350_709
-0.44027936,3.534199,9.137591,-0.0035124752,-0.010079277,0.013286319,20240202_145350_710
-0.4354937,3.5437703,9.147162,-0.0035124752,-0.003970624,0.012064588,20240202_145350_712
-0.421735,3.548556,9.137591,-0.0010690142,-0.006414085,0.0096211275,20240202_145350_714
-0.421735,3.534199,9.123235,1.5271631E-4,-0.0076358155,0.0096211275,20240202_145350_716
-0.41694933,3.5437703,9.094521,0.0013744468,-0.005192355,0.0071776668,20240202_145350_719
-0.4121637,3.5437703,9.094521,1.5271631E-4,-0.005192355,0.0071776668,20240202_145350_721
-0.3930211,3.548556,9.080164,0.0013744468,-0.0076358155,0.0071776668,20240202_145350_724
-0.41694933,3.548556,9.118449,1.5271631E-4,-0.003970624,0.005955936,20240202_145350_725
-0.421735,3.5437703,9.132806,-0.0022907446,-0.003970624,0.0047342055,20240202_145350_728
-0.40737805,3.5533416,9.12802,-0.0022907446,-0.005192355,0.0022907446,20240202_145350_729
-0.42652065,3.5533416,9.123235,-0.0035124752,-0.006414085,0.0010690142,20240202_145350_731
-0.43609193,3.5533416,9.118449,-0.0035124752,-0.0015271631,-1.5271631E-4,20240202_145350_733
-0.42652065,3.5437703,9.094521,-0.0033597588,-0.003970624,-0.0013744468,20240202_145350_736
-0.4408776,3.5676985,9.094521,-0.0070249503,-0.006414085,-0.0038179078,20240202_145350_738
-0.43609193,3.5533416,9.123235,-0.008246681,-0.005192355,-0.0062613687,20240202_145350_740
-0.41694933,3.5150564,9.123235,-0.011911872,-0.003970624,-0.0050396384,20240202_145350_742
-0.4211368,3.5150564,9.123235,-0.013133603,-0.006414085,-0.005192355,20240202_145350_744
-0.41694933,3.5246277,9.12802,-0.016798794,-0.0015271631,-0.005192355,20240202_145350_746
-0.41635114,3.505485,9.118449,-0.016798794,-0.0027488936,-0.0015271631,20240202_145350_749
-0.41156548,3.505485,9.104092,-0.016798794,-3.0543262E-4,-0.0027488936,20240202_145350_754
-0.43070808,3.5150564,9.104092,-0.016798794,-3.0543262E-4,-0.0015271631,20240202_145350_755
-0.4354937,3.505485,9.099306,-0.019242255,-0.0027488936,-0.0015271631,20240202_145350_756
-0.44506502,3.5198421,9.075378,-0.018020526,-0.0015271631,9.162979E-4,20240202_145350_758
-0.42592242,3.5198421,9.061021,-0.016798794,-0.0027488936,-0.0015271631,20240202_145350_760
-0.4354937,3.505485,9.089735,-0.0143553335,-3.0543262E-4,0.0010690142,20240202_145350_762
-0.42592242,3.4911282,9.123235,-0.012064588,0.004581489,0.0010690142,20240202_145350_765
-0.44506502,3.5006995,9.132806,-0.011911872,0.0033597588,0.0010690142,20240202_145350_766
-0.44027936,3.5006995,9.147162,-0.0096211275,0.004581489,0.0010690142,20240202_145350_768
-0.44985065,3.505485,9.12802,-0.010842858,0.008246681,0.0035124752,20240202_145350_770
-0.45942193,3.505485,9.142377,-0.005955936,0.010537425,0.0022907446,20240202_145350_772
-0.45942193,3.5150564,9.132806,-0.0047342055,0.009468411,0.0035124752,20240202_145350_774
-0.45942193,3.5198421,9.12802,-0.0047342055,0.008246681,0.0022907446,20240202_145350_777
-0.45942193,3.5102708,9.137591,1.5271631E-4,0.008246681,0.0022907446,20240202_145350_779
-0.44506502,3.5102708,9.132806,0.0013744468,0.0021380284,0.0022907446,20240202_145350_782
-0.45942193,3.505485,9.132806,0.0013744468,9.162979E-4,0.0022907446,20240202_145350_783
-0.44985065,3.505485,9.137591,0.0038179078,-3.0543262E-4,0.0010690142,20240202_145350_785
-0.43609193,3.5198421,9.142377,0.0038179078,-3.0543262E-4,0.0022907446,20240202_145350_787
-0.4408776,3.5198421,9.137591,1.5271631E-4,-0.005192355,-1.5271631E-4,20240202_145350_789
-0.43609193,3.5294135,9.137591,1.5271631E-4,-0.0027488936,-0.0013744468,20240202_145350_792
-0.44027936,3.5102708,9.142377,-9.162979E-4,-0.005192355,-0.0025961774,20240202_145350_794
-0.44985065,3.5198421,9.142377,-0.0033597588,-0.008857546,-0.0025961774,20240202_145350_796
-0.4408776,3.5198421,9.137591,-0.004581489,-0.010079277,-0.0050396384,20240202_145350_798
-0.44985065,3.5150564,9.123235,-0.0033597588,-0.010079277,-0.0050396384,20240202_145350_800
-0.44985065,3.5150564,9.104092,-0.0070249503,-0.010079277,-0.0062613687,20240202_145350_802
-0.44027936,3.5150564,9.094521,-0.0070249503,-0.011301007,-0.0062613687,20240202_145350_804
-0.43070808,3.495914,9.085547,-0.009468411,-0.0125227375,-0.008857546,20240202_145350_807
-0.43070808,3.5102708,9.094521,-0.008246681,-0.010079277,-0.00992656,20240202_145350_809
-0.41694933,3.5102708,9.104092,-0.0106901415,-0.010079277,-0.008857546,20240202_145350_812
-0.4121637,3.5150564,9.099306,-0.00580322,-0.0076358155,-0.00992656,20240202_145350_813
-0.41694933,3.5294135,9.099306,-0.0106901415,-3.0543262E-4,-0.00992656,20240202_145350_815
-0.40737805,3.5102708,9.104092,-0.009468411,-3.0543262E-4,-0.011148291,20240202_145350_817
-0.40259242,3.5102708,9.094521,-0.0106901415,-0.0027488936,-0.00992656,20240202_145350_820
-0.40259242,3.5006995,9.099306,-0.0070249503,0.004581489,-0.00992656,20240202_145350_822
-0.40737805,3.4863427,9.094521,-0.008246681,0.008246681,-0.007483099,20240202_145350_824
-0.41635114,3.5006995,9.080164,-0.009468411,0.0033597588,-0.00870483,20240202_145350_826
-0.41635114,3.495914,9.094521,-0.008246681,0.00580322,-0.00870483,20240202_145350_828
-0.42652065,3.5102708,9.113664,-0.0070249503,0.011911872,-0.00870483,20240202_145350_830
-0.42592242,3.505485,9.104092,-0.008246681,0.008246681,-0.00992656,20240202_145350_832
-0.43070808,3.5006995,9.132806,-0.00580322,0.008246681,-0.00870483,20240202_145350_834
-0.44027936,3.5006995,9.12802,-0.00580322,0.0106901415,-0.00992656,20240202_145350_837
-0.4354937,3.5006995,9.147162,-0.004581489,0.008246681,-0.012370021,20240202_145350_839
-0.44985065,3.505485,9.137591,-0.00580322,0.004581489,-0.012370021,20240202_145350_841
-0.4546363,3.505485,9.16152,-0.0021380284,0.008246681,-0.014813482,20240202_145350_843
-0.45942193,3.495914,9.156734,-9.162979E-4,0.00580322,-0.012370021,20240202_145350_845
-0.44506502,3.505485,9.175877,-0.0033597588,0.0021380284,-0.017256944,20240202_145350_847
-0.4546363,3.5001013,9.185448,-0.0021380284,0.004581489,-0.013591751,20240202_145350_850
-0.45942193,3.4911282,9.180662,3.0543262E-4,0.004581489,-0.017256944,20240202_145350_852
-0.45942193,3.5102708,9.171091,3.0543262E-4,9.162979E-4,-0.017256944,20240202_145350_853
-0.46899325,3.495914,9.137591,0.0027488936,9.162979E-4,-0.018478673,20240202_145350_856
-0.47377887,3.5006995,9.151948,0.0027488936,0.0021380284,-0.017256944,20240202_145350_858
-0.47856453,3.5102708,9.147162,0.006414085,-0.0015271631,-0.017256944,20240202_145350_860
-0.46899325,3.505485,9.142377,0.005192355,-0.0027488936,-0.017256944,20240202_145350_863
-0.46899325,3.495914,9.109476,0.006414085,9.162979E-4,-0.017256944,20240202_145350_864
-0.4546363,3.481557,9.12802,0.010079277,-0.0027488936,-0.016035212,20240202_145350_867
-0.45942193,3.4863427,9.123235,0.011301007,-0.0015271631,-0.016035212,20240202_145350_869
-0.45942193,3.5006995,9.118449,0.010079277,-3.0543262E-4,-0.014813482,20240202_145350_872
-0.4642076,3.4863427,9.123235,0.011301007,-3.0543262E-4,-0.013591751,20240202_145350_873
-0.4642076,3.495914,9.108877,0.010079277,-3.0543262E-4,-0.012370021,20240202_145350_875
-0.47377887,3.495914,9.109476,0.011148291,9.162979E-4,-0.00992656,20240202_145350_877
-0.46899325,3.4911282,9.104691,0.012370021,0.0033597588,-0.009773844,20240202_145350_880
-0.46899325,3.5006995,9.085547,0.013591751,0.0021380284,-0.007330383,20240202_145350_882
-0.45942193,3.5150564,9.071191,0.014813482,0.0033597588,-0.007330383,20240202_145350_884
-0.4642076,3.5102708,9.080762,0.012370021,0.0021380284,-0.004886922,20240202_145350_886
-0.44506502,3.534199,9.080164,0.014813482,0.004581489,-0.0061086523,20240202_145350_889
-0.44506502,3.5533416,9.099306,0.012370021,0.004581489,-0.0036651916,20240202_145350_891
-0.45942193,3.5533416,9.0849495,0.00992656,0.008246681,-0.0036651916,20240202_145350_892
-0.46899325,3.5533416,9.070593,0.007483099,0.00580322,-0.0038179078,20240202_145350_895
-0.47377887,3.5533416,9.0849495,0.0062613687,0.0021380284,-0.0038179078,20240202_145350_897
-0.47377887,3.5724843,9.099306,0.0038179078,0.004581489,-0.0038179078,20240202_145350_899
-0.4642076,3.5533416,9.089735,0.0038179078,0.0070249503,-0.0025961774,20240202_145350_901
-0.47377887,3.5676985,9.089735,0.0013744468,0.0033597588,-0.0025961774,20240202_145350_903
-0.47377887,3.5724843,9.080164,0.0013744468,0.0033597588,-1.5271631E-4,20240202_145350_905
-0.45942193,3.5724843,9.099306,-0.0022907446,0.0033597588,0.0010690142,20240202_145350_907
-0.46899325,3.562913,9.075378,-0.0035124752,0.0033597588,0.0010690142,20240202_145350_910
-0.4546363,3.5772698,9.065806,-0.0035124752,0.0021380284,0.0047342055,20240202_145350_912
-0.45942193,3.5772698,9.089735,-0.005955936,0.0021380284,0.0047342055,20240202_145350_914
-0.46899325,3.5676985,9.104092,-0.008399397,0.0033597588,0.005955936,20240202_145350_916
-0.47377887,3.5389848,9.089735,-0.008399397,9.162979E-4,0.008399397,20240202_145350_918
-0.4642076,3.5389848,9.080164,-0.0096211275,-3.0543262E-4,0.008399397,20240202_145350_921
-0.47377887,3.5437703,9.089735,-0.010842858,-3.0543262E-4,0.0096211275,20240202_145350_923
-0.46899325,3.548556,9.070593,-0.012064588,-0.0015271631,0.0071776668,20240202_145350_925
-0.4642076,3.548556,9.080164,-0.012064588,-0.003970624,0.010842858,20240202_145350_927
-0.46899325,3.5389848,9.104092,-0.013286319,-0.0027488936,0.008399397,20240202_145350_929
-0.4642076,3.5437703,9.113664,-0.012064588,-0.005192355,0.0096211275,20240202_145350_931
-0.4546363,3.5389848,9.123235,-0.013286319,-0.003970624,0.005955936,20240202_145350_933
-0.46899325,3.534199,9.137591,-0.012064588,-0.0027488936,0.008399397,20240202_145350_937
-0.45942193,3.534199,9.132806,-0.010842858,-0.0027488936,0.005955936,20240202_145350_938
-0.4642076,3.5198421,9.123235,-0.008399397,-0.0015271631,0.0047342055,20240202_145350_940
-0.44506502,3.5246277,9.123235,-0.0096211275,-3.0543262E-4,0.005955936,20240202_145350_941
-0.44027936,3.5102708,9.118449,-0.0071776668,9.162979E-4,0.0035124752,20240202_145350_944
-0.42592242,3.505485,9.123235,-0.0096211275,-0.0027488936,0.0047342055,20240202_145350_946
-0.4354937,3.5102708,9.108877,-0.008246681,-0.005192355,0.0022907446,20240202_145350_948
-0.4354937,3.4911282,9.099306,-0.008246681,-0.003970624,0.0022907446,20240202_145350_950
-0.4642076,3.495914,9.099904,-0.009468411,-0.005192355,0.0035124752,20240202_145350_952
-0.45942193,3.4863427,9.109476,-0.009468411,-0.006414085,0.0022907446,20240202_145350_955
-0.4642076,3.4911282,9.119047,-0.0106901415,-0.003970624,0.0010690142,20240202_145350_957
-0.4642076,3.495914,9.109476,-0.011911872,-0.005192355,0.0022907446,20240202_145350_959
-0.4642076,3.5006995,9.119047,-0.011911872,-0.0076358155,-1.5271631E-4,20240202_145350_961
-0.4642076,3.4911282,9.123833,-0.015577064,-0.006414085,9.162979E-4,20240202_145350_963
-0.46899325,3.495914,9.123833,-0.015577064,-0.006414085,9.162979E-4,20240202_145350_966
-0.49292147,3.4863427,9.128618,-0.0143553335,-0.006414085,0.0021380284,20240202_145350_968
-0.4833502,3.5006995,9.128618,-0.016798794,-0.0076358155,0.0021380284,20240202_145350_970
-0.4642076,3.4911282,9.132806,-0.0143553335,-0.003970624,9.162979E-4,20240202_145350_972
-0.4833502,3.5006995,9.114262,-0.0143553335,-0.0076358155,0.0021380284,20240202_145350_974
-0.4833502,3.495914,9.123833,-0.013133603,-0.005192355,0.0022907446,20240202_145350_976
-0.47377887,3.505485,9.109476,-0.0106901415,-0.006414085,0.0022907446,20240202_145350_980
-0.47856453,3.4911282,9.119047,-0.009468411,-0.008857546,0.0035124752,20240202_145350_981
-0.47377887,3.4911282,9.123833,-0.008246681,-0.006414085,0.0035124752,20240202_145350_983
-0.47856453,3.495914,9.133404,-0.008399397,-0.005192355,0.0071776668,20240202_145350_985
-0.4642076,3.4863427,9.114262,-0.005955936,-0.006414085,0.008399397,20240202_145350_987
-0.46899325,3.4911282,9.123833,-0.005955936,-0.0027488936,0.010842858,20240202_145350_989
-0.47377887,3.4863427,9.132806,-0.0035124752,-3.0543262E-4,0.012064588,20240202_145350_992
-0.45942193,3.5102708,9.142377,-0.0022907446,-0.003970624,0.012064588,20240202_145350_993
-0.44506502,3.5246277,9.132806,-0.0010690142,-0.0015271631,0.01450805,20240202_145350_995
-0.44027936,3.5102708,9.099306,1.5271631E-4,9.162979E-4,0.013286319,20240202_145350_997
-0.44985065,3.5198421,9.099306,0.0013744468,-0.0015271631,0.013286319,20240202_145351_000
-0.44985065,3.5150564,9.099306,0.0025961774,-0.0027488936,0.012064588,20240202_145351_002
-0.43070808,3.5150564,9.104092,0.0013744468,-3.0543262E-4,0.01450805,20240202_145351_004
-0.44506502,3.5006995,9.104092,0.0013744468,-0.0015271631,0.012064588,20240202_145351_006
-0.42592242,3.505485,9.123235,0.0025961774,-0.0027488936,0.010842858,20240202_145351_009
-0.4211368,3.5150564,9.118449,0.0013744468,-0.0015271631,0.0096211275,20240202_145351_010
-0.40737805,3.5102708,9.12802,-0.0010690142,9.162979E-4,0.008399397,20240202_145351_013
-0.40737805,3.5198421,9.118449,-0.0010690142,-3.0543262E-4,0.0071776668,20240202_145351_017
-0.41635114,3.505485,9.099306,-0.0035124752,9.162979E-4,0.005955936,20240202_145351_018
-0.4211368,3.505485,9.094521,-0.005955936,0.0021380284,0.005955936,20240202_145351_020
-0.41635114,3.5150564,9.094521,-0.005955936,-0.0015271631,0.0047342055,20240202_145351_021
-0.40737805,3.5102708,9.094521,-0.010842858,-0.0015271631,0.0047342055,20240202_145351_024
-0.41635114,3.505485,9.0849495,-0.010842858,0.004581489,0.005955936,20240202_145351_026
-0.40737805,3.5006995,9.12802,-0.0096211275,-0.0027488936,0.0035124752,20240202_145351_029
-0.40737805,3.505485,9.12802,-0.010842858,0.00580322,0.0035124752,20240202_145351_030
-0.40259242,3.5294135,9.132806,-0.012064588,0.0070249503,0.0035124752,20240202_145351_032
-0.4121637,3.5294135,9.12802,-0.0096211275,0.0021380284,0.0022907446,20240202_145351_034
-0.421735,3.5437703,9.118449,-0.010842858,0.0033597588,0.0022907446,20240202_145351_036
-0.421735,3.5437703,9.108877,-0.0096211275,0.004581489,0.0010690142,20240202_145351_039
-0.41694933,3.534199,9.104092,-0.008399397,-3.0543262E-4,0.0010690142,20240202_145351_041
-0.4211368,3.5198421,9.108877,-0.009468411,-3.0543262E-4,-0.0013744468,20240202_145351_043
-0.42592242,3.5150564,9.113664,-0.0106901415,9.162979E-4,-1.5271631E-4,20240202_145351_045
-0.42592242,3.5198421,9.123235,-0.008246681,-0.0015271631,-0.0013744468,20240202_145351_047
-0.4354937,3.5198421,9.142377,-0.009468411,-0.0015271631,-0.0025961774,20240202_145351_049
-0.44506502,3.5294135,9.147162,-0.009468411,9.162979E-4,-0.0038179078,20240202_145351_052
-0.4546363,3.5198421,9.171091,-0.0106901415,-0.0027488936,-0.0062613687,20240202_145351_054
-0.44985065,3.5294135,9.151948,-0.011911872,-0.0027488936,-0.0050396384,20240202_145351_056
-0.4546363,3.5198421,9.142377,-0.009468411,-3.0543262E-4,-0.007483099,20240202_145351_058
-0.47377887,3.5198421,9.128618,-0.008246681,-3.0543262E-4,-0.00992656,20240202_145351_060
-0.46899325,3.5198421,9.114262,-0.0070249503,-0.0015271631,-0.00870483,20240202_145351_062
-0.4642076,3.505485,9.114262,-0.008246681,-3.0543262E-4,-0.00992656,20240202_145351_064
-0.4642076,3.4863427,9.109476,-0.0070249503,-0.0027488936,-0.00870483,20240202_145351_067
-0.47377887,3.481557,9.123833,-0.00580322,-0.0015271631,-0.011148291,20240202_145351_070
-0.47856453,3.4624143,9.123833,-0.004581489,0.0033597588,-0.00870483,20240202_145351_071
-0.47377887,3.4624143,9.142975,-0.0033597588,9.162979E-4,-0.00992656,20240202_145351_073
-0.49292147,3.4480574,9.138189,-0.0033597588,0.0021380284,-0.00870483,20240202_145351_076
-0.5024927,3.4719856,9.114262,-0.0033597588,0.00580322,-0.0062613687,20240202_145351_077
-0.5072784,3.481557,9.109476,-0.004581489,0.0033597588,-0.007483099,20240202_145351_079
-0.51206404,3.4576287,9.114262,-0.004581489,9.162979E-4,-0.0038179078,20240202_145351_082
-0.4977071,3.4576287,9.099904,-0.0022907446,0.0021380284,-0.0025961774,20240202_145351_084
-0.4881358,3.4576287,9.090333,-0.0035124752,0.0021380284,-1.5271631E-4,20240202_145351_086
-0.5024927,3.4672,9.109476,-0.0035124752,0.0021380284,0.0022907446,20240202_145351_089
-0.4833502,3.4911282,9.109476,-0.0047342055,9.162979E-4,0.0047342055,20240202_145351_090
-0.4833502,3.481557,9.128618,-0.0035124752,0.004581489,0.0071776668,20240202_145351_092
-0.4881358,3.4911282,9.152547,-0.0047342055,0.00580322,0.0096211275,20240202_145351_095
-0.4833502,3.495914,9.147761,-0.0047342055,0.00580322,0.010842858,20240202_145351_096
-0.47856453,3.495914,9.128618,-0.005955936,0.004581489,0.012064588,20240202_145351_099
-0.47856453,3.505485,9.133404,-0.0071776668,0.008246681,0.01450805,20240202_145351_101
-0.4642076,3.5150564,9.114262,-0.0047342055,0.004581489,0.01450805,20240202_145351_104
-0.4642076,3.5246277,9.090333,-0.005955936,0.0033597588,0.01695151,20240202_145351_106
-0.44985065,3.5294135,9.085547,-0.0035124752,0.004581489,0.01695151,20240202_145351_107
-0.44985065,3.5198421,9.0951185,-0.0022907446,0.0033597588,0.01572978,20240202_145351_110
-0.44985065,3.5198421,9.109476,-0.0022907446,0.0021380284,0.01817324,20240202_145351_112
-0.4408776,3.5246277,9.113664,-0.0022907446,0.004581489,0.01695151,20240202_145351_114
-0.4456632,3.5389848,9.123235,-0.0022907446,0.0033597588,0.019394971,20240202_145351_116
-0.42652065,3.5389848,9.12802,-0.0022907446,0.004581489,0.01695151,20240202_145351_118
-0.41694933,3.5246277,9.113664,-0.0022907446,0.004581489,0.01450805,20240202_145351_121
-0.42652065,3.5294135,9.118449,-0.0047342055,0.0021380284,0.01450805,20240202_145351_123
-0.42652065,3.5389848,9.094521,-0.0047342055,9.162979E-4,0.013286319,20240202_145351_125
-0.40737805,3.5246277,9.075378,-0.005955936,-0.0015271631,0.010842858,20240202_145351_127
-0.3930211,3.5437703,9.108877,-0.005955936,-0.005192355,0.008399397,20240202_145351_129
-0.3930211,3.534199,9.099306,-0.0071776668,-0.0027488936,0.005955936,20240202_145351_131
-0.3930211,3.5294135,9.104092,-0.0096211275,-0.003970624,0.0047342055,20240202_145351_134
-0.38344982,3.534199,9.123235,-0.011911872,-0.006414085,0.0010690142,20240202_145351_135
-0.38344982,3.534199,9.12802,-0.0106901415,-0.003970624,-0.0013744468,20240202_145351_138
-0.38823548,3.5389848,9.123235,-0.013133603,-0.005192355,-0.005192355,20240202_145351_140
-0.39780676,3.5150564,9.113664,-0.015577064,-0.0076358155,-0.0076358155,20240202_145351_142
-0.40259242,3.5102708,9.089735,-0.016798794,-0.006414085,-0.008857546,20240202_145351_144
-0.40737805,3.5006995,9.123235,-0.018020526,-0.006414085,-0.010079277,20240202_145351_146
-0.39780676,3.505485,9.113664,-0.019242255,-0.0125227375,-0.011301007,20240202_145351_148
-0.40737805,3.4911282,9.099904,-0.018020526,-0.010079277,-0.0125227375,20240202_145351_150
-0.40259242,3.481557,9.109476,-0.016798794,-0.008857546,-0.011301007,20240202_145351_152
-0.40737805,3.4672,9.123833,-0.016798794,-0.010079277,-0.0125227375,20240202_145351_155
-0.42592242,3.4719856,9.138189,-0.016798794,-0.010079277,-0.011301007,20240202_145351_157
-0.44985065,3.4719856,9.138189,-0.015577064,-0.005192355,-0.011301007,20240202_145351_159
-0.44985065,3.4672,9.133404,-0.0143553335,-0.0027488936,-0.008857546,20240202_145351_161
-0.44985065,3.4672,9.128618,-0.013133603,-0.006414085,-0.008857546,20240202_145351_163
-0.44985065,3.4767714,9.109476,-0.009468411,-0.003970624,-0.007483099,20240202_145351_165
-0.45942193,3.4767714,9.109476,-0.009468411,-0.0015271631,-0.007483099,20240202_145351_167
-0.4642076,3.4767714,9.128618,-0.0070249503,-0.005192355,-0.0050396384,20240202_145351_169
-0.46899325,3.4672,9.128618,-0.00580322,-3.0543262E-4,-0.0025961774,20240202_145351_172
-0.46899325,3.4672,9.152547,-0.0035124752,0.0033597588,-0.0025961774,20240202_145351_175
-0.47856453,3.4863427,9.157332,-0.0022907446,-3.0543262E-4,-1.5271631E-4,20240202_145351_178
-0.47377887,3.4767714,9.162118,1.5271631E-4,0.00580322,-1.5271631E-4,20240202_145351_179
-0.4833502,3.481557,9.142975,1.5271631E-4,0.008246681,0.0010690142,20240202_145351_180
-0.47856453,3.4863427,9.142975,0.0025961774,0.004581489,0.0010690142,20240202_145351_183
-0.4881358,3.4863427,9.147761,0.0025961774,0.008246681,0.0022907446,20240202_145351_187
-0.47856453,3.4767714,9.123833,0.0038179078,0.009468411,0.0047342055,20240202_145351_187
-0.47856453,3.481557,9.114262,0.0038179078,0.004581489,0.005955936,20240202_145351_190
-0.47856453,3.4767714,9.109476,0.0062613687,0.00580322,0.0047342055,20240202_145351_192
-0.47856453,3.4767714,9.119047,0.0050396384,0.008246681,0.005955936,20240202_145351_193
-0.4881358,3.4863427,9.133404,0.0038179078,0.00580322,0.005955936,20240202_145351_196
-0.4881358,3.4767714,9.142975,0.0038179078,0.00580322,0.005955936,20240202_145351_197
-0.46899325,3.4911282,9.133404,0.0025961774,0.0070249503,0.0071776668,20240202_145351_200
-0.47377887,3.495914,9.138189,1.5271631E-4,0.0070249503,0.0047342055,20240202_145351_202
-0.47856453,3.5102708,9.133404,1.5271631E-4,0.004581489,0.005955936,20240202_145351_204
-0.47856453,3.5006995,9.114262,-0.0022907446,0.00580322,0.0035124752,20240202_145351_206
-0.47377887,3.5198421,9.142975,-0.0047342055,0.004581489,0.005955936,20240202_145351_208
-0.47856453,3.505485,9.109476,-0.005955936,0.0033597588,0.005955936,20240202_145351_210
-0.46899325,3.505485,9.128618,-0.0071776668,0.0033597588,0.005955936,20240202_145351_213
-0.46899325,3.5006995,9.114262,-0.010842858,0.0033597588,0.005955936,20240202_145351_215
-0.47377887,3.5006995,9.109476,-0.012064588,-0.0027488936,0.008399397,20240202_145351_217
-0.47856453,3.505485,9.104691,-0.012064588,-0.0015271631,0.008399397,20240202_145351_219
-0.4881358,3.5102708,9.109476,-0.012064588,9.162979E-4,0.0096211275,20240202_145351_221
-0.4977071,3.5150564,9.099904,-0.010842858,-0.003970624,0.008399397,20240202_145351_226
-0.49292147,3.5198421,9.0951185,-0.012064588,-0.003970624,0.010842858,20240202_145351_226
-0.47856453,3.5150564,9.099904,-0.010842858,-0.0027488936,0.010842858,20240202_145351_228
-0.47377887,3.505485,9.104691,-0.013286319,-0.0076358155,0.0096211275,20240202_145351_230
-0.46899325,3.505485,9.109476,-0.012064588,-0.008857546,0.0096211275,20240202_145351_232
-0.46899325,3.481557,9.119047,-0.012064588,-0.005192355,0.010842858,20240202_145351_234
-0.45942193,3.5006995,9.114262,-0.012064588,-0.008857546,0.012064588,20240202_145351_236
-0.4546363,3.4911282,9.133404,-0.013286319,-0.010079277,0.010842858,20240202_145351_238
-0.4546363,3.5006995,9.128618,-0.010842858,-0.003970624,0.012064588,20240202_145351_241
-0.4546363,3.495914,9.128618,-0.010842858,-0.0027488936,0.012064588,20240202_145351_242
-0.44985065,3.495914,9.123833,-0.012064588,-0.0076358155,0.012064588,20240202_145351_246
-0.44027936,3.481557,9.114262,-0.012064588,-0.005192355,0.012064588,20240202_145351_247
-0.44985065,3.4624143,9.114262,-0.010842858,-0.003970624,0.013286319,20240202_145351_249
-0.4354937,3.481557,9.123833,-0.012064588,-0.0076358155,0.01450805,20240202_145351_251
-0.44027936,3.4863427,9.123833,-0.0096211275,-0.003970624,0.012064588,20240202_145351_253
-0.42592242,3.481557,9.114262,-0.0096211275,-0.006414085,0.013286319,20240202_145351_255
-0.4354937,3.4767714,9.123833,-0.005955936,-0.006414085,0.010842858,20240202_145351_258
-0.42652065,3.4911282,9.123833,-0.008399397,-0.006414085,0.010842858,20240202_145351_260
-0.41694933,3.495914,9.12802,-0.0071776668,-0.0015271631,0.0096211275,20240202_145351_262
-0.40259242,3.495914,9.132806,-0.005955936,-0.0076358155,0.008399397,20240202_145351_264
-0.41156548,3.4719856,9.147162,-0.0071776668,-0.005192355,0.0071776668,20240202_145351_266
-0.4019942,3.4719856,9.108877,-0.005955936,-3.0543262E-4,0.005955936,20240202_145351_268
-0.40259242,3.481557,9.147162,-0.0047342055,-0.006414085,0.0047342055,20240202_145351_270
-0.39780676,3.4911282,9.151948,-0.0022907446,-0.0015271631,0.0047342055,20240202_145351_272
-0.37387854,3.4767714,9.151948,-0.0010690142,9.162979E-4,0.0035124752,20240202_145351_275
-0.3930211,3.481557,9.137591,1.5271631E-4,-3.0543262E-4,0.0022907446,20240202_145351_277
-0.3930211,3.481557,9.137591,0.0025961774,0.0033597588,0.0010690142,20240202_145351_279
-0.38344982,3.481557,9.147162,0.0050396384,0.004581489,0.0022907446,20240202_145351_281
-0.38344982,3.4719856,9.113664,0.0025961774,-0.0015271631,-1.5271631E-4,20240202_145351_283
-0.40677986,3.4719856,9.123235,0.0038179078,0.0021380284,0.0010690142,20240202_145351_285
-0.38823548,3.481557,9.12802,0.0038179078,0.00580322,-1.5271631E-4,20240202_145351_288
-0.40259242,3.4767714,9.12802,0.0050396384,9.162979E-4,-0.0025961774,20240202_145351_290
-0.39780676,3.4911282,9.118449,0.0062613687,0.0021380284,-0.0013744468,20240202_145351_292
-0.421735,3.495914,9.147162,0.0050396384,0.00580322,-0.0013744468,20240202_145351_294
-0.42592242,3.495914,9.137591,0.0050396384,0.00580322,-0.0025961774,20240202_145351_296
-0.42592242,3.481557,9.137591,0.00870483,0.00580322,-0.0038179078,20240202_145351_298
-0.4211368,3.481557,9.123235,0.00870483,0.009468411,-0.0036651916,20240202_145351_300
-0.44506502,3.4863427,9.147162,0.00870483,0.011911872,-0.0036651916,20240202_145351_302
-0.44027936,3.4767714,9.132806,0.007483099,0.004581489,-0.0050396384,20240202_145351_304
-0.4546363,3.4911282,9.119047,0.00992656,0.008246681,-0.004886922,20240202_145351_307
-0.44985065,3.5006995,9.123235,0.00870483,0.009468411,-0.004886922,20240202_145351_309
-0.4546363,3.505485,9.123235,0.00870483,0.00580322,-0.0038179078,20240202_145351_313
-0.4546363,3.4911282,9.114262,0.00870483,0.004581489,-0.0025961774,20240202_145351_314
-0.4642076,3.495914,9.137591,0.011148291,0.008246681,-0.0012217305,20240202_145351_315
-0.45942193,3.495914,9.12802,0.00992656,0.004581489,-0.0,20240202_145351_317
-0.49292147,3.5150564,9.133404,0.0062613687,0.0021380284,-0.0013744468,20240202_145351_320
-0.49292147,3.5294135,9.12802,0.0062613687,0.0033597588,0.0010690142,20240202_145351_322
-0.5024927,3.505485,9.114262,0.0038179078,-3.0543262E-4,0.0010690142,20240202_145351_324
-0.5024927,3.5102708,9.109476,0.0050396384,0.0021380284,0.0035124752,20240202_145351_326
-0.51206404,3.5006995,9.0951185,0.0038179078,9.162979E-4,0.0047342055,20240202_145351_329
-0.5024927,3.5198421,9.114262,0.0025961774,-0.0027488936,0.0071776668,20240202_145351_330
-0.5072784,3.5198421,9.090333,1.5271631E-4,-0.0015271631,0.010842858,20240202_145351_333
-0.5072784,3.5294135,9.090333,1.5271631E-4,-3.0543262E-4,0.010842858,20240202_145351_335
-0.4977071,3.5294135,9.099904,-0.0022907446,-0.0027488936,0.01572978,20240202_145351_336
-0.5024927,3.5389848,9.099904,-0.0047342055,-0.0050396384,0.01450805,20240202_145351_339
-0.5072784,3.5533416,9.090333,-0.005955936,-0.0027488936,0.020616703,20240202_145351_341
-0.5024927,3.5437703,9.066405,-0.0071776668,-0.0050396384,0.020616703,20240202_145351_344
-0.5024927,3.5533416,9.066405,-0.0096211275,-0.005192355,0.023060163,20240202_145351_345
-0.4977071,3.5389848,9.066405,-0.012064588,-0.003970624,0.026725354,20240202_145351_348
-0.4977071,3.534199,9.071191,-0.012064588,-0.0062613687,0.027947085,20240202_145351_350
-0.4833502,3.5006995,9.080762,-0.013286319,-0.0015271631,0.027947085,20240202_145351_352
-0.47856453,3.5246277,9.090333,-0.01572978,-0.003970624,0.027947085,20240202_145351_354
-0.47856453,3.5150564,9.0951185,-0.01817324,-0.0027488936,0.03283401,20240202_145351_356
-0.4881358,3.5246277,9.085547,-0.020616703,9.162979E-4,0.031612277,20240202_145351_359
-0.47856453,3.5198421,9.075976,-0.01817324,-3.0543262E-4,0.03283401,20240202_145351_361
-0.47856453,3.5102708,9.090333,-0.019394971,-0.0015271631,0.031612277,20240202_145351_363
-0.46899325,3.5006995,9.099904,-0.021838432,-3.0543262E-4,0.03145956,20240202_145351_365
-0.45942193,3.5006995,9.114262,-0.020616703,-0.0015271631,0.031612277,20240202_145351_367
-0.4456632,3.4911282,9.104691,-0.020616703,-3.0543262E-4,0.030390546,20240202_145351_369
-0.4456632,3.495914,9.104691,-0.021838432,-0.0015271631,0.03023783,20240202_145351_374
-0.43609193,3.4863427,9.109476,-0.025503624,-3.0543262E-4,0.0290161,20240202_145351_374
-0.42652065,3.4911282,9.123833,-0.023060163,-0.005192355,0.0290161,20240202_145351_376
-0.43609193,3.4911282,9.128618,-0.025503624,-0.005192355,0.026572637,20240202_145351_378
-0.43609193,3.481557,9.138189,-0.025503624,-0.0015271631,0.022907447,20240202_145351_380
-0.44506502,3.4719856,9.147761,-0.025503624,-0.003970624,0.024129177,20240202_145351_381
-0.43609193,3.4624143,9.162118,-0.024281893,-0.005192355,0.019242255,20240202_145351_385
-0.41694933,3.4576287,9.152547,-0.023060163,-0.003970624,0.018020526,20240202_145351_387
-0.40737805,3.4576287,9.142975,-0.021685716,-0.008857546,0.015577064,20240202_145351_389
-0.41694933,3.4576287,9.152547,-0.020463986,-0.0076358155,0.013133603,20240202_145351_391
-0.40737805,3.4480574,9.157332,-0.020463986,-0.00992656,0.009468411,20240202_145351_393
-0.40259242,3.4576287,9.138189,-0.019242255,-0.008857546,0.0070249503,20240202_145351_395
-0.40737805,3.4624143,9.171689,-0.019242255,-0.011148291,0.0070249503,20240202_145351_397
-0.4121637,3.4432719,9.171689,-0.016798794,-0.0076358155,0.0021380284,20240202_145351_399
-0.3930211,3.438486,9.186047,-0.0143553335,-0.00992656,0.0021380284,20240202_145351_402
-0.39780676,3.4289148,9.18126,-0.013133603,-0.00870483,-0.0015271631,20240202_145351_403
-0.39780676,3.438486,9.18126,-0.0106901415,-0.00870483,-0.0027488936,20240202_145351_406
-0.40737805,3.4241292,9.1669035,-0.009468411,-0.00870483,-0.0038179078,20240202_145351_408
-0.3930211,3.4289148,9.157332,-0.0070249503,-0.00870483,-0.0062613687,20240202_145351_409
-0.38823548,3.4289148,9.147761,-0.00580322,-0.00870483,-0.0050396384,20240202_145351_413
-0.39780676,3.4241292,9.142975,-0.0021380284,-0.007483099,-0.0062613687,20240202_145351_414
-0.39780676,3.4241292,9.152547,-0.0021380284,-0.007483099,-0.0062613687,20240202_145351_416
-0.3930211,3.4528432,9.152547,-9.162979E-4,-0.0062613687,-0.0062613687,20240202_145351_418
-0.3930211,3.4480574,9.147761,-0.0021380284,-0.005192355,-0.00870483,20240202_145351_420
-0.4121637,3.4672,9.128618,3.0543262E-4,-0.0027488936,-0.0062613687,20240202_145351_422
-0.40259242,3.4672,9.142975,3.0543262E-4,-0.0050396384,-0.00870483,20240202_145351_424
-0.40737805,3.4672,9.119047,0.0015271631,-0.0027488936,-0.007483099,20240202_145351_430
-0.421735,3.4863427,9.114262,0.0027488936,-0.0050396384,-0.00870483,20240202_145351_431
-0.4121637,3.4863427,9.119047,0.0027488936,-0.0050396384,-0.00870483,20240202_145351_432
-0.40737805,3.4767714,9.119047,0.0015271631,-0.0027488936,-0.0062613687,20240202_145351_434
-0.421735,3.481557,9.119047,0.0015271631,-3.0543262E-4,-0.00870483,20240202_145351_436
-0.43130627,3.4863427,9.133404,0.0015271631,-0.0015271631,-0.0062613687,20240202_145351_438
-0.4456632,3.495914,9.133404,3.0543262E-4,9.162979E-4,-0.007483099,20240202_145351_440
-0.45044887,3.5048869,9.142975,3.0543262E-4,0.0021380284,-0.0050396384,20240202_145351_442
-0.4456632,3.5006995,9.119047,-0.0021380284,0.00580322,-0.0038179078,20240202_145351_446
-0.45044887,3.5006995,9.114262,-0.0010690142,0.0070249503,-0.0038179078,20240202_145351_446
-0.46899325,3.495914,9.128618,-0.0021380284,0.0021380284,-0.0025961774,20240202_145351_449
-0.46899325,3.5246277,9.090333,-0.0022907446,0.00580322,-0.0013744468,20240202_145351_451
-0.45044887,3.5102708,9.090333,-0.0010690142,0.0070249503,-1.5271631E-4,20240202_145351_453
-0.45044887,3.505485,9.085547,-0.0010690142,0.0033597588,0.0010690142,20240202_145351_454
-0.4552345,3.505485,9.104691,0.0013744468,0.004581489,0.0010690142,20240202_145351_458
-0.4552345,3.5150564,9.104691,1.5271631E-4,0.004581489,0.0022907446,20240202_145351_459
-0.46959144,3.5198421,9.123833,1.5271631E-4,9.162979E-4,0.0022907446,20240202_145351_461
-0.46959144,3.519244,9.147761,1.5271631E-4,9.162979E-4,0.0071776668,20240202_145351_464
-0.4833502,3.5240295,9.152547,-0.0022907446,-3.0543262E-4,0.0047342055,20240202_145351_466
-0.47856453,3.505485,9.133404,-0.0010690142,9.162979E-4,0.0071776668,20240202_145351_472
-0.47377887,3.495914,9.138189,-0.0035124752,-0.0027488936,0.005955936,20240202_145351_473
-0.46899325,3.505485,9.138189,-0.0022907446,-0.0015271631,0.005955936,20240202_145351_473
-0.45942193,3.5006995,9.128618,-0.0035124752,-0.0015271631,0.005955936,20240202_145351_474
-0.45942193,3.4911282,9.142975,-0.0047342055,-0.005192355,0.005955936,20240202_145351_477
-0.4546363,3.5006995,9.123833,-0.005955936,-0.0027488936,0.0071776668,20240202_145351_479
-0.44985065,3.481557,9.133404,-0.005955936,-0.0015271631,0.005955936,20240202_145351_481
-0.44027936,3.481557,9.128618,-0.005955936,-0.0027488936,0.005955936,20240202_145351_482
-0.44985065,3.495914,9.138189,-0.0047342055,-0.0015271631,0.005955936,20240202_145351_484
-0.4354937,3.4672,9.123833,-0.005955936,-0.0027488936,0.005955936,20240202_145351_487
-0.4546363,3.4719856,9.114262,-0.0047342055,-0.0027488936,0.0071776668,20240202_145351_489
-0.4354937,3.4624143,9.0951185,-0.0022907446,-0.0015271631,0.0047342055,20240202_145351_492
-0.44506502,3.4480574,9.104691,-0.0035124752,-0.0015271631,0.005955936,20240202_145351_494
-0.43070808,3.4528432,9.099904,-0.0022907446,-0.003970624,0.0047342055,20240202_145351_496
-0.4354937,3.4576287,9.090333,-0.0035124752,-0.0015271631,0.0035124752,20240202_145351_498
-0.4211368,3.4624143,9.114262,-0.0047342055,-3.0543262E-4,0.0047342055,20240202_145351_502
-0.42592242,3.4767714,9.128618,-0.0035124752,9.162979E-4,0.0022907446,20240202_145351_503
-0.4354937,3.4719856,9.142975,-0.0035124752,0.004581489,0.0035124752,20240202_145351_505
-0.421735,3.4767714,9.142975,-0.0071776668,9.162979E-4,0.0010690142,20240202_145351_506
-0.43070808,3.481557,9.123833,-0.008246681,-3.0543262E-4,0.0010690142,20240202_145351_509
-0.4354937,3.4719856,9.099904,-0.009468411,-3.0543262E-4,-1.5271631E-4,20240202_145351_511
-0.42592242,3.4719856,9.0951185,-0.008246681,9.162979E-4,-0.0013744468,20240202_145351_513
-0.44506502,3.4719856,9.114262,-0.009468411,-0.0027488936,-1.5271631E-4,20240202_145351_515
-0.4354937,3.4624143,9.123833,-0.0106901415,-0.005192355,-0.0013744468,20240202_145351_517
-0.43070808,3.4672,9.128618,-0.0106901415,-0.0027488936,-1.5271631E-4,20240202_145351_520
-0.43130627,3.4719856,9.166306,-0.009468411,-0.003970624,-0.0013744468,20240202_145351_521
-0.4354937,3.4528432,9.157332,-0.009468411,-0.0015271631,-1.5271631E-4,20240202_145351_524
-0.43070808,3.4672,9.162118,-0.0106901415,-3.0543262E-4,-1.5271631E-4,20240202_145351_525
-0.42652065,3.4767714,9.142975,-0.009468411,-0.003970624,-0.0013744468,20240202_145351_528
-0.42592242,3.4767714,9.128618,-0.008246681,-0.005192355,-0.0013744468,20240202_145351_530
-0.44027936,3.481557,9.123833,-0.00580322,-0.0027488936,-0.0025961774,20240202_145351_533
-0.42652065,3.4863427,9.123833,-0.004581489,-0.006414085,-0.0038179078,20240202_145351_534
-0.42652065,3.4767714,9.142975,-9.162979E-4,-0.0076358155,-0.0038179078,20240202_145351_536
-0.40737805,3.4863427,9.147162,-9.162979E-4,-0.0050396384,-0.0050396384,20240202_145351_539
-0.40737805,3.4713874,9.162118,0.0027488936,-0.0062613687,-0.0050396384,20240202_145351_541
-0.39780676,3.4809587,9.152547,0.005192355,-0.0025961774,-0.007483099,20240202_145351_543
-0.40737805,3.49053,9.157332,0.006414085,-1.5271631E-4,-0.0062613687,20240202_145351_545
-0.39780676,3.4857445,9.157332,0.0076358155,9.162979E-4,-0.007483099,20240202_145351_547
-0.42652065,3.4809587,9.157332,0.00992656,9.162979E-4,-0.00870483,20240202_145351_549
-0.4121637,3.4767714,9.109476,0.010079277,-1.5271631E-4,-0.00870483,20240202_145351_551
-0.40737805,3.4672,9.114262,0.014813482,0.0021380284,-0.009773844,20240202_145351_555
-0.40737805,3.4624143,9.142975,0.013591751,-0.0013744468,-0.00992656,20240202_145351_556
-0.40259242,3.4576287,9.133404,0.012370021,0.0021380284,-0.011148291,20240202_145351_559
-0.4121637,3.4672,9.114262,0.014813482,0.0033597588,-0.010995574,20240202_145351_560
-0.40737805,3.4767714,9.119047,0.011301007,0.0021380284,-0.011148291,20240202_145351_562
-0.40259242,3.4672,9.133404,0.011148291,0.00580322,-0.011148291,20240202_145351_565
-0.4121637,3.4624143,9.119047,0.011148291,0.004581489,-0.011148291,20240202_145351_567
-0.421735,3.4863427,9.133404,0.011301007,0.00580322,-0.012370021,20240202_145351_570
-0.42652065,3.4719856,9.123833,0.00992656,0.008246681,-0.011148291,20240202_145351_571
-0.4408776,3.4672,9.123833,0.008857546,0.00580322,-0.012370021,20240202_145351_573
-0.43609193,3.4863427,9.128618,0.011148291,0.0070249503,-0.012370021,20240202_145351_576
-0.4456632,3.4911282,9.114262,0.00992656,0.0106901415,-0.011148291,20240202_145351_578
-0.45942193,3.481557,9.104691,0.011148291,0.0070249503,-0.012370021,20240202_145351_580
-0.4642076,3.4624143,9.114262,0.012370021,0.009468411,-0.009773844,20240202_145351_581
-0.4642076,3.4719856,9.109476,0.011148291,0.0106901415,-0.008552114,20240202_145351_584
-0.47377887,3.4863427,9.114262,0.00870483,0.0070249503,-0.0062613687,20240202_145351_586
-0.46899325,3.481557,9.109476,0.00992656,0.008246681,-0.007483099,20240202_145351_588
-0.47377887,3.49053,9.138189,0.011148291,0.008246681,-0.007330383,20240202_145351_591
-0.49292147,3.4953158,9.142975,0.012370021,0.008246681,-0.004886922,20240202_145351_592
-0.47856453,3.4953158,9.142975,0.00992656,0.0070249503,-0.0050396384,20240202_145351_595
-0.47856453,3.4857445,9.142975,0.012370021,0.0106901415,-0.0036651916,20240202_145351_596
-0.4833502,3.4857445,9.152547,0.011148291,0.00580322,-0.0036651916,20240202_145351_599
-0.4833502,3.49053,9.138189,0.014813482,0.00580322,-0.0012217305,20240202_145351_601
-0.46959144,3.5001013,9.152547,0.014813482,0.0070249503,-0.002443461,20240202_145351_602
-0.4648058,3.4863427,9.138189,0.013591751,0.00580322,-0.0,20240202_145351_605
-0.4456632,3.5144582,9.142975,0.014813482,0.00580322,-0.002443461,20240202_145351_609
-0.4552345,3.495914,9.128618,0.014813482,0.004581489,-0.0,20240202_145351_610
-0.45942193,3.481557,9.128618,0.014813482,0.0021380284,0.0012217305,20240202_145351_611
-0.4642076,3.481557,9.119047,0.014813482,0.004581489,0.0012217305,20240202_145351_613
-0.45044887,3.4863427,9.142975,0.014813482,0.0033597588,0.0012217305,20240202_145351_616
-0.44506502,3.4719856,9.128618,0.016035212,0.004581489,0.0012217305,20240202_145351_617
-0.4456632,3.5006995,9.119047,0.014813482,0.0070249503,-0.0,20240202_145351_620
-0.43609193,3.4911282,9.128618,0.016035212,0.0070249503,-0.0,20240202_145351_622
-0.421735,3.4624143,9.123833,0.014813482,0.004581489,-0.0012217305,20240202_145351_624
-0.42652065,3.481557,9.128618,0.016035212,0.008246681,-0.002443461,20240202_145351_626
-0.4121637,3.4863427,9.114262,0.016035212,0.011911872,-0.0036651916,20240202_145351_629
-0.40259242,3.495914,9.123833,0.018478673,0.0106901415,-0.004886922,20240202_145351_631
-0.40737805,3.4911282,9.133404,0.016035212,0.0106901415,-0.0061086523,20240202_145351_633
-0.4121637,3.481557,9.099904,0.017256944,0.013133603,-0.007330383,20240202_145351_635
-0.41694933,3.4863427,9.114262,0.018478673,0.009468411,-0.007330383,20240202_145351_637
-0.4121637,3.4863427,9.109476,0.019700404,0.011911872,-0.009773844,20240202_145351_639
-0.421735,3.4767714,9.104691,0.017256944,0.0106901415,-0.008552114,20240202_145351_641
-0.43609193,3.481557,9.119047,0.016035212,0.008246681,-0.012217305,20240202_145351_643
-0.42652065,3.4953158,9.147761,0.017256944,0.0070249503,-0.012217305,20240202_145351_645
-0.43609193,3.495914,9.142975,0.014813482,0.0070249503,-0.014660766,20240202_145351_648
-0.43609193,3.4911282,9.147761,0.014813482,0.0070249503,-0.014660766,20240202_145351_650
-0.4408776,3.4911282,9.123833,0.0125227375,0.00580322,-0.016035212,20240202_145351_652
-0.4408776,3.481557,9.147761,0.0125227375,0.0070249503,-0.016035212,20240202_145351_654
-0.45044887,3.5006995,9.138189,0.013744468,0.004581489,-0.014660766,20240202_145351_657
-0.4642076,3.4911282,9.119047,0.013744468,0.004581489,-0.017256944,20240202_145351_660
-0.4456632,3.495914,9.128618,0.014966198,0.0033597588,-0.017104227,20240202_145351_661
-0.4552345,3.5006995,9.114262,0.0125227375,-3.0543262E-4,-0.017256944,20240202_145351_663
-0.4552345,3.495914,9.119047,0.0125227375,-0.0050396384,-0.017256944,20240202_145351_665
-0.4552345,3.5102708,9.119047,0.011301007,-0.0025961774,-0.016035212,20240202_145351_667
-0.46899325,3.5006995,9.104691,0.0076358155,-0.00870483,-0.018478673,20240202_145351_670
-0.47856453,3.5006995,9.119047,0.0076358155,-0.00992656,-0.017256944,20240202_145351_671
-0.46959144,3.519244,9.128618,0.005192355,-0.00992656,-0.019700404,20240202_145351_674
-0.47377887,3.5102708,9.123833,0.006414085,-0.00992656,-0.017256944,20240202_145351_677
-0.47856453,3.505485,9.123833,0.0015271631,-0.00870483,-0.017256944,20240202_145351_679
-0.47856453,3.5102708,9.123833,3.0543262E-4,-0.0062613687,-0.016035212,20240202_145351_681
-0.46899325,3.5102708,9.123833,0.0015271631,-0.0027488936,-0.013591751,20240202_145351_683
-0.4552345,3.5294135,9.119047,-0.0021380284,-0.003970624,-0.013591751,20240202_145351_686
-0.4648058,3.5198421,9.099904,-0.0021380284,-0.0027488936,-0.00992656,20240202_145351_687
-0.4642076,3.505485,9.071191,-0.0033597588,-0.0015271631,-0.00870483,20240202_145351_689
-0.44985065,3.5006995,9.080762,-0.004581489,-0.0015271631,-0.0038179078,20240202_145351_691
-0.4546363,3.5006995,9.071191,-0.0035124752,0.0070249503,-0.0025961774,20240202_145351_693
-0.4642076,3.4911282,9.080762,-0.0047342055,0.004581489,-1.5271631E-4,20240202_145351_695
-0.47377887,3.495914,9.080762,-0.0047342055,0.0021380284,0.005955936,20240202_145351_698
-0.4642076,3.4863427,9.080762,-0.0035124752,0.011911872,0.0071776668,20240202_145351_699
-0.44506502,3.4911282,9.080762,-0.0035124752,0.013133603,0.012064588,20240202_145351_702
-0.4552345,3.5102708,9.104691,-0.0035124752,0.0070249503,0.01450805,20240202_145351_704
-0.4648058,3.534199,9.099904,-0.0022907446,0.0143553335,0.01572978,20240202_145351_706
-0.46002015,3.5294135,9.104691,-0.0035124752,0.0143553335,0.01817324,20240202_145351_708
-0.4648058,3.5389848,9.104691,1.5271631E-4,0.009468411,0.019394971,20240202_145351_710
-0.47856453,3.5198421,9.119047,0.0013744468,0.011911872,0.019394971,20240202_145351_712
-0.4833502,3.5102708,9.104691,1.5271631E-4,0.013133603,0.01817324,20240202_145351_715
-0.4833502,3.495914,9.133404,1.5271631E-4,0.004581489,0.01817324,20240202_145351_717
-0.4833502,3.4911282,9.128618,1.5271631E-4,0.00580322,0.01695151,20240202_145351_719
-0.4833502,3.5001013,9.157332,0.0013744468,0.009468411,0.01695151,20240202_145351_722
-0.4648058,3.4953158,9.157332,0.0013744468,0.0033597588,0.01450805,20240202_145351_723
-0.46002015,3.5096726,9.152547,-0.0010690142,-0.0038179078,0.012064588,20240202_145351_725
-0.4648058,3.5001013,9.157332,-0.0035124752,0.0021380284,0.0096211275,20240202_145351_727
-0.4552345,3.4761732,9.1669035,-0.0047342055,-0.0050396384,0.005955936,20240202_145351_729
-0.4456632,3.5048869,9.1669035,-0.0022907446,-0.0027488936,0.0035124752,20240202_145351_731
-0.42652065,3.4809587,9.162118,-0.004581489,-0.0015271631,0.0010690142,20240202_145351_734
-0.421735,3.4767714,9.138189,-0.00580322,-0.007483099,-0.0013744468,20240202_145351_736
-0.41694933,3.4624143,9.147761,-0.0070249503,-0.00870483,-0.0013744468,20240202_145351_738
-0.41694933,3.4528432,9.128618,-0.0070249503,-0.0027488936,-0.0062613687,20240202_145351_740
-0.3930211,3.438486,9.114262,-0.008246681,-0.006414085,-0.0062613687,20240202_145351_742
-0.421735,3.4528432,9.090333,-0.008246681,-0.00870483,-0.00870483,20240202_145351_745
-0.421735,3.4432719,9.090333,-0.009468411,-0.0050396384,-0.00870483,20240202_145351_747
-0.41694933,3.4337006,9.075976,-0.009468411,-0.0062613687,-0.010079277,20240202_145351_748
-0.4354937,3.4432719,9.0951185,-0.008246681,-0.00870483,-0.010079277,20240202_145351_752
-0.42592242,3.4289148,9.109476,-0.009468411,-0.0062613687,-0.011301007,20240202_145351_753
-0.43609193,3.4480574,9.114262,-0.0070249503,-0.0062613687,-0.012370021,20240202_145351_755
-0.4408776,3.4719856,9.123833,-0.00580322,-0.0062613687,-0.013591751,20240202_145351_757
-0.421735,3.481557,9.133404,-0.0070249503,-0.0015271631,-0.012370021,20240202_145351_760
-0.4456632,3.481557,9.138189,-0.00580322,-0.0027488936,-0.013591751,20240202_145351_762
-0.43130627,3.5096726,9.138189,-0.004581489,-0.0050396384,-0.012370021,20240202_145351_764
-0.4408776,3.5048869,9.138189,-0.004581489,-3.0543262E-4,-0.013591751,20240202_145351_766
-0.4552345,3.5048869,9.147761,-0.0021380284,9.162979E-4,-0.012370021,20240202_145351_768
-0.46002015,3.5144582,9.152547,-0.004581489,-0.0027488936,-0.012370021,20240202_145351_771
-0.45044887,3.5096726,9.157332,3.0543262E-4,0.0021380284,-0.011148291,20240202_145351_772
-0.4552345,3.4953158,9.157332,0.0027488936,-3.0543262E-4,-0.00870483,20240202_145351_775
-0.45044887,3.5048869,9.152547,0.005192355,-0.0013744468,-0.007483099,20240202_145351_777
-0.46959144,3.5048869,9.152547,0.0062613687,0.0033597588,-0.0038179078,20240202_145351_779
-0.47916272,3.5001013,9.147761,0.0062613687,9.162979E-4,-0.0038179078,20240202_145351_781
-0.46959144,3.5001013,9.152547,0.00992656,-0.0013744468,-0.0025961774,20240202_145351_783
-0.49292147,3.5096726,9.138189,0.00992656,0.00580322,-0.0,20240202_145351_785
-0.4833502,3.4911282,9.133404,0.013591751,0.00580322,-0.0,20240202_145351_787
-0.4648058,3.495914,9.123833,0.014813482,-0.0013744468,0.004886922,20240202_145351_789
-0.46959144,3.5048869,9.128618,0.017256944,0.008246681,0.002443461,20240202_145351_794
-0.45044887,3.5006995,9.099904,0.018478673,0.0070249503,0.004886922,20240202_145351_794
-0.43609193,3.5006995,9.0951185,0.019700404,-1.5271631E-4,0.004886922,20240202_145351_796
-0.4456632,3.505485,9.109476,0.019700404,0.009468411,0.0061086523,20240202_145351_798
-0.4408776,3.5102708,9.114262,0.019700404,0.0070249503,0.007330383,20240202_145351_800
-0.4456632,3.5006995,9.119047,0.019700404,0.004581489,0.0061086523,20240202_145351_802
-0.42652065,3.5102708,9.114262,0.014813482,0.013133603,0.008552114,20240202_145351_804
-0.43609193,3.5096726,9.123833,0.013591751,0.008246681,0.007330383,20240202_145351_808
-0.45044887,3.519244,9.123833,0.011148291,0.004581489,0.004886922,20240202_145351_810
-0.4408776,3.5150564,9.109476,0.00870483,0.0106901415,0.004886922,20240202_145351_812
-0.4408776,3.5006995,9.080762,0.0062613687,0.004581489,0.0035124752,20240202_145351_813
-0.4408776,3.495914,9.099904,0.0050396384,0.0010690142,0.0047342055,20240202_145351_816
-0.4408776,3.5006995,9.085547,0.0038179078,0.004581489,0.0022907446,20240202_145351_818
-0.4408776,3.4911282,9.099904,1.5271631E-4,9.162979E-4,0.0022907446,20240202_145351_820
-0.43130627,3.505485,9.099904,1.5271631E-4,-0.0013744468,0.0010690142,20240202_145351_822
-0.45044887,3.5096726,9.123833,-0.0047342055,0.0021380284,0.0022907446,20240202_145351_825
-0.4456632,3.505485,9.104691,-0.00580322,-3.0543262E-4,0.0010690142,20240202_145351_826
-0.4456632,3.5001013,9.123833,-0.0070249503,-0.0038179078,-1.5271631E-4,20240202_145351_828
-0.4648058,3.5048869,9.123833,-0.008246681,-0.0015271631,0.0010690142,20240202_145351_831
-0.4456632,3.495914,9.099904,-0.008246681,-3.0543262E-4,-0.0013744468,20240202_145351_833
-0.43609193,3.5102708,9.085547,-0.0106901415,-0.0038179078,-0.0025961774,20240202_145351_835
-0.4456632,3.505485,9.085547,-0.008246681,-0.0050396384,-0.0025961774,20240202_145351_837
-0.43130627,3.5102708,9.104691,-0.009468411,-0.0038179078,-0.0025961774,20240202_145351_839
-0.45044887,3.5144582,9.123833,-0.013133603,-0.007483099,-0.0027488936,20240202_145351_842
-0.46002015,3.5001013,9.138189,-0.008246681,-0.0027488936,-0.0050396384,20240202_145351_843
-0.46959144,3.5096726,9.142975,-0.0106901415,-0.0027488936,-0.0050396384,20240202_145351_845
-0.4743771,3.5048869,9.162118,-0.011911872,-0.0062613687,-0.005192355,20240202_145351_847
-0.4743771,3.4953158,9.142975,-0.008246681,-0.0027488936,-0.007483099,20240202_145351_849
-0.47377887,3.481557,9.138189,-0.008246681,-0.0038179078,-0.007483099,20240202_145351_851
-0.4648058,3.4953158,9.133404,-0.009468411,-0.00992656,-0.008857546,20240202_145351_854
-0.4456632,3.5144582,9.119047,-0.0070249503,-0.00992656,-0.007483099,20240202_145351_856
-0.45044887,3.495914,9.119047,-0.00580322,-0.011148291,-0.007483099,20240202_145351_859
-0.45044887,3.4863427,9.123833,-0.004581489,-0.014813482,-0.007483099,20240202_145351_863
-0.43130627,3.4857445,9.147761,-0.004581489,-0.014813482,-0.0062613687,20240202_145351_863
-0.4408776,3.49053,9.162118,-0.0033597588,-0.011148291,-0.0062613687,20240202_145351_864
-0.43609193,3.4953158,9.171689,-0.0033597588,-0.013591751,-0.0050396384,20240202_145351_867
-0.4408776,3.5048869,9.157332,-0.004581489,-0.017256944,-0.0062613687,20240202_145351_869
-0.4552345,3.4953158,9.142975,-0.0033597588,-0.00870483,-0.007483099,20240202_145351_871
-0.4456632,3.5096726,9.138189,-0.0021380284,-0.013591751,-0.0062613687,20240202_145351_874
-0.4456632,3.495914,9.114262,-0.0033597588,-0.013591751,-0.0062613687,20240202_145351_876
-0.4456632,3.4863427,9.109476,-9.162979E-4,-0.00870483,-0.0050396384,20240202_145351_879
-0.4408776,3.4863427,9.109476,-9.162979E-4,-0.011148291,-0.0062613687,20240202_145351_881
-0.4408776,3.4719856,9.114262,3.0543262E-4,-0.014813482,-0.0062613687,20240202_145351_882
-0.4408776,3.4719856,9.123833,0.0015271631,-0.007483099,-0.0062613687,20240202_145351_886
-0.43609193,3.4767714,9.142975,0.0015271631,-0.0062613687,-0.0062613687,20240202_145351_887
-0.4456632,3.4767714,9.138189,3.0543262E-4,-0.00870483,-0.0050396384,20240202_145351_888
-0.42652065,3.4719856,9.119047,-9.162979E-4,-0.007483099,-0.0062613687,20240202_145351_891
-0.4456632,3.4767714,9.114262,3.0543262E-4,-0.0025961774,-0.0062613687,20240202_145351_894
-0.4546363,3.4767714,9.114262,0.0027488936,-0.0062613687,-0.0062613687,20240202_145351_895
-0.4546363,3.4767714,9.114262,3.0543262E-4,-0.007483099,-0.0062613687,20240202_145351_897
-0.4408776,3.4863427,9.085547,0.0027488936,-0.0050396384,-0.0062613687,20240202_145351_899
-0.4456632,3.481557,9.104691,0.0015271631,-0.00992656,-0.0050396384,20240202_145351_902
-0.43609193,3.481557,9.119047,0.0015271631,-0.007483099,-0.00870483,20240202_145351_903
-0.4552345,3.4863427,9.133404,0.0015271631,-0.0050396384,-0.007483099,20240202_145351_905
-0.4642076,3.4761732,9.152547,-0.0021380284,-0.0062613687,-0.007483099,20240202_145351_910
-0.4648058,3.4857445,9.152547,-0.0033597588,-0.0050396384,-0.007483099,20240202_145351_911
-0.46002015,3.4953158,9.142975,-0.004581489,-0.0027488936,-0.007483099,20240202_145351_913
-0.47377887,3.4809587,9.152547,-0.00580322,-0.003970624,-0.007483099,20240202_145351_915
-0.46002015,3.5001013,9.142975,-0.004581489,-0.0038179078,-0.007483099,20240202_145351_916
-0.46959144,3.4953158,9.138189,-0.004581489,-0.0015271631,-0.00870483,20240202_145351_919
-0.4642076,3.4863427,9.099904,-0.004581489,-0.0062613687,-0.007483099,20240202_145351_920
-0.4642076,3.4719856,9.114262,-0.004581489,-0.0050396384,-0.007483099,20240202_145351_923
-0.47377887,3.4672,9.099904,-0.0033597588,-0.0015271631,-0.0062613687,20240202_145351_925
-0.4642076,3.4576287,9.128618,-0.0021380284,-0.0038179078,-0.0050396384,20240202_145351_927
-0.46899325,3.4624143,9.128618,-9.162979E-4,-0.0050396384,-0.0038179078,20240202_145351_929
-0.45942193,3.4672,9.138189,-0.0033597588,-0.0027488936,-0.0025961774,20240202_145351_931
-0.4642076,3.481557,9.128618,-0.0021380284,-0.0025961774,-0.0013744468,20240202_145351_933
-0.45942193,3.4767714,9.142975,-0.0033597588,-0.0062613687,-1.5271631E-4,20240202_145351_936
-0.4456632,3.4719856,9.123833,1.5271631E-4,9.162979E-4,-1.5271631E-4,20240202_145351_937
-0.43130627,3.4719856,9.142975,-0.0010690142,-0.0038179078,0.0010690142,20240202_145351_942
-0.421735,3.495914,9.123833,0.0013744468,-0.0015271631,0.0010690142,20240202_145351_943
-0.42652065,3.4863427,9.128618,1.5271631E-4,0.0033597588,0.0022907446,20240202_145351_944
-0.42652065,3.49053,9.147761,0.0038179078,0.0021380284,0.0010690142,20240202_145351_946
-0.41694933,3.4953158,9.142975,0.0025961774,0.0021380284,0.0022907446,20240202_145351_948
-0.4121637,3.4953158,9.152547,0.0050396384,0.0070249503,0.0022907446,20240202_145351_950
-0.41694933,3.4857445,9.138189,0.0038179078,0.0035124752,0.0022907446,20240202_145351_952
-0.4408776,3.4761732,9.133404,0.007483099,0.008246681,0.0022907446,20240202_145351_955
-0.43609193,3.4719856,9.104691,0.0050396384,0.008246681,0.0035124752,20240202_145351_957
-0.45044887,3.481557,9.0951185,0.0050396384,0.0035124752,0.0047342055,20240202_145351_959
-0.45044887,3.481557,9.090333,0.0062613687,0.0010690142,0.0047342055,20240202_145351_962
-0.45044887,3.4719856,9.0951185,0.007483099,0.0035124752,0.0047342055,20240202_145351_963
-0.4456632,3.481557,9.0951185,0.0050396384,-0.0013744468,0.005955936,20240202_145351_965
-0.4456632,3.495914,9.090333,0.0025961774,-0.0025961774,0.0035124752,20240202_145351_968
-0.4552345,3.519244,9.119047,0.0025961774,-0.0013744468,0.0035124752,20240202_145351_970
-0.4552345,3.5001013,9.128618,0.0025961774,-0.0038179078,0.0035124752,20240202_145351_972
-0.4552345,3.5096726,9.128618,-0.0022907446,-0.0038179078,0.0035124752,20240202_145351_974
-0.46002015,3.5144582,9.123833,-0.0033597588,-0.0038179078,0.0022907446,20240202_145351_977
-0.4456632,3.5288153,9.123833,-0.0033597588,-0.0038179078,0.0022907446,20240202_145351_979
-0.46959144,3.5240295,9.133404,-0.00580322,-0.0050396384,0.0010690142,20240202_145351_981
-0.46002015,3.5096726,9.128618,-0.0070249503,-0.0013744468,0.0010690142,20240202_145351_983
-0.45044887,3.5048869,9.123833,-0.009468411,-0.0038179078,0.0010690142,20240202_145351_985
-0.4552345,3.5048869,9.114262,-0.008246681,-0.0050396384,-1.5271631E-4,20240202_145351_987
-0.4456632,3.5144582,9.0951185,-0.00580322,-0.0013744468,0.0022907446,20240202_145351_989
-0.45044887,3.5048869,9.109476,-0.009468411,-0.007483099,0.0022907446,20240202_145351_992
-0.46959144,3.4857445,9.119047,-0.0070249503,-0.0062613687,0.0022907446,20240202_145351_994
-0.45044887,3.5096726,9.099904,-0.0070249503,-0.0038179078,0.0022907446,20240202_145351_996
-0.45044887,3.5001013,9.104691,-0.00580322,-0.007483099,0.0035124752,20240202_145351_998
-0.4552345,3.5001013,9.123833,-0.004581489,-0.0038179078,0.0022907446,20240202_145352_000
-0.4456632,3.4863427,9.109476,-0.0035124752,-0.0025961774,0.0035124752,20240202_145352_002
-0.4552345,3.5048869,9.128618,-0.0033597588,-0.0025961774,0.0022907446,20240202_145352_005
-0.43609193,3.5001013,9.142975,-0.0010690142,-1.5271631E-4,0.0047342055,20240202_145352_006
-0.43609193,3.5001013,9.142975,1.5271631E-4,0.0033597588,0.0035124752,20240202_145352_008
-0.4456632,3.49053,9.138189,-0.0010690142,-1.5271631E-4,0.0047342055,20240202_145352_010
-0.45044887,3.4857445,9.133404,0.0013744468,0.0022907446,0.0047342055,20240202_145352_013
-0.43609193,3.4857445,9.128618,0.0025961774,0.0035124752,0.0047342055,20240202_145352_015
-0.4552345,3.4761732,9.128618,0.0050396384,0.0035124752,0.005955936,20240202_145352_017
-0.4456632,3.4672,9.123833,0.0025961774,0.0010690142,0.0047342055,20240202_145352_020
-0.46002015,3.461816,9.11486,0.0062613687,0.0035124752,0.005955936,20240202_145352_021
-0.46959144,3.461816,9.124431,0.0038179078,0.0035124752,0.0047342055,20240202_145352_024
-0.46959144,3.4522448,9.138788,0.0038179078,0.0010690142,0.005955936,20240202_145352_026
-0.4648058,3.461816,9.138788,0.0038179078,-1.5271631E-4,0.008399397,20240202_145352_028
-0.4648058,3.4666018,9.124431,0.0038179078,0.0010690142,0.0071776668,20240202_145352_030
-0.46959144,3.4672,9.110074,0.0038179078,-0.0013744468,0.008399397,20240202_145352_032
-0.46002015,3.4666018,9.124431,0.0038179078,-0.0013744468,0.005955936,20240202_145352_035
-0.4552345,3.4570305,9.124431,0.0038179078,-0.0013744468,0.0071776668,20240202_145352_037
-0.4552345,3.4809587,9.138189,0.0013744468,-0.0050396384,0.005955936,20240202_145352_039
-0.45044887,3.4713874,9.11486,0.0013744468,-0.0025961774,0.005955936,20240202_145352_043
-0.45044887,3.4857445,9.119047,1.5271631E-4,-0.0025961774,0.0047342055,20240202_145352_044
-0.4552345,3.4857445,9.119047,1.5271631E-4,-0.007483099,0.0035124752,20240202_145352_045
-0.4552345,3.4809587,9.128618,1.5271631E-4,-0.0038179078,0.0035124752,20240202_145352_047
-0.45044887,3.49053,9.142975,0.0013744468,-0.0013744468,0.0010690142,20240202_145352_050
-0.4408776,3.4953158,9.123833,-9.162979E-4,-0.0038179078,-1.5271631E-4,20240202_145352_051
-0.43609193,3.5001013,9.138189,-9.162979E-4,-0.0013744468,-1.5271631E-4,20240202_145352_054
-0.43130627,3.4953158,9.123833,-0.0021380284,-0.0025961774,-0.0025961774,20240202_145352_055
-0.42652065,3.5144582,9.114262,-9.162979E-4,-0.0050396384,-0.0013744468,20240202_145352_058
-0.43130627,3.5001013,9.104691,-9.162979E-4,-0.0050396384,-0.0025961774,20240202_145352_060
-0.421735,3.5048869,9.114262,-9.162979E-4,-0.0025961774,-0.0013744468,20240202_145352_061
-0.40737805,3.5048869,9.114262,-9.162979E-4,-0.0050396384,-0.0025961774,20240202_145352_064
-0.41694933,3.5001013,9.104691,-0.0033597588,-0.0025961774,-0.0013744468,20240202_145352_066
-0.4121637,3.5144582,9.109476,-9.162979E-4,-0.0050396384,-1.5271631E-4,20240202_145352_068
-0.40737805,3.5001013,9.114262,-0.004581489,-0.0038179078,-0.0013744468,20240202_145352_070
-0.4121637,3.4953158,9.099904,-0.0070249503,-0.0062613687,-1.5271631E-4,20240202_145352_073
-0.42652065,3.5096726,9.104691,-0.0070249503,-0.0050396384,-1.5271631E-4,20240202_145352_078
-0.40737805,3.5096726,9.109476,-0.0070249503,-0.0013744468,0.0010690142,20240202_145352_078
-0.43609193,3.5096726,9.104691,-0.0070249503,-0.0062613687,-1.5271631E-4,20240202_145352_079
-0.42652065,3.5048869,9.109476,-0.008246681,-0.0038179078,-0.0013744468,20240202_145352_082
-0.43130627,3.5001013,9.128618,-0.008246681,-0.0025961774,0.0010690142,20240202_145352_084
-0.42652065,3.4857445,9.147761,-0.00580322,-0.0038179078,-0.0013744468,20240202_145352_086
-0.41694933,3.4953158,9.142975,-0.004581489,0.0021380284,-0.0013744468,20240202_145352_088
-0.421735,3.519244,9.162118,-0.0070249503,-3.0543262E-4,-0.0038179078,20240202_145352_090
-0.39780676,3.5240295,9.152547,-0.004581489,-0.0013744468,-0.0013744468,20240202_145352_092
-0.41694933,3.5048869,9.138189,-0.0033597588,0.0033597588,-0.0025961774,20240202_145352_094
-0.41694933,3.5096726,9.123833,-0.0021380284,0.004581489,-0.0025961774,20240202_145352_097
-0.40737805,3.5001013,9.123833,-9.162979E-4,-1.5271631E-4,-0.0025961774,20240202_145352_099
-0.43130627,3.4953158,9.142975,-9.162979E-4,-0.0013744468,-0.0025961774,20240202_145352_101
-0.42652065,3.4809587,9.133404,0.0013744468,0.004581489,-0.0025961774,20240202_145352_104
-0.4456632,3.4809587,9.133404,0.0027488936,-0.0013744468,-0.0025961774,20240202_145352_105
-0.43130627,3.4809587,9.133404,0.0062613687,0.00580322,-0.0025961774,20240202_145352_107
-0.4408776,3.4809587,9.157332,0.0038179078,0.011911872,-0.0025961774,20240202_145352_110
-0.4552345,3.4809587,9.142975,0.0050396384,0.004581489,-0.0025961774,20240202_145352_111
-0.45044887,3.461816,9.152547,0.0050396384,0.009468411,-0.0013744468,20240202_145352_113
-0.4642076,3.4672,9.128618,0.007483099,0.011911872,-0.0038179078,20240202_145352_116
-0.45044887,3.4576287,9.128618,0.0062613687,0.004581489,-1.5271631E-4,20240202_145352_118
-0.47377887,3.4576287,9.119047,0.0050396384,0.009468411,-1.5271631E-4,20240202_145352_120
-0.47377887,3.4480574,9.110074,0.0050396384,0.0070249503,-0.0013744468,20240202_145352_122
-0.4977071,3.4672,9.123833,0.0038179078,0.0021380284,-1.5271631E-4,20240202_145352_125
-0.49292147,3.4624143,9.119645,0.0050396384,0.004581489,-0.0013744468,20240202_145352_127
-0.4881358,3.4624143,9.128618,0.0062613687,0.004581489,0.0010690142,20240202_145352_129
-0.51206404,3.4719856,9.124431,0.0050396384,0.0022907446,-1.5271631E-4,20240202_145352_133
-0.5168497,3.4809587,9.142975,0.0025961774,0.0021380284,0.0010690142,20240202_145352_134
-0.4977071,3.4719856,9.123833,0.0025961774,0.0010690142,0.0010690142,20240202_145352_135
-0.4881358,3.4767714,9.128618,0.0038179078,-0.0013744468,0.0022907446,20240202_145352_137
-0.4833502,3.4672,9.138189,0.0038179078,0.0010690142,0.0022907446,20240202_145352_140
-0.4833502,3.4672,9.109476,0.0038179078,-0.0038179078,0.0035124752,20240202_145352_142
-0.46899325,3.4624143,9.133404,0.0038179078,-0.0062613687,0.0047342055,20240202_145352_144
-0.45044887,3.4857445,9.133404,0.0025961774,-0.0025961774,0.0047342055,20240202_145352_146
-0.4552345,3.4857445,9.133404,0.0050396384,-0.0062613687,0.0071776668,20240202_145352_148
-0.45044887,3.4953158,9.152547,0.0025961774,-0.0050396384,0.005955936,20240202_145352_150
-0.45044887,3.5048869,9.147761,0.0025961774,-0.0025961774,0.0071776668,20240202_145352_152
-0.4456632,3.4953158,9.123833,0.0025961774,-0.0050396384,0.005955936,20240202_145352_154
-0.4456632,3.4953158,9.128618,0.0025961774,-0.0050396384,0.0047342055,20240202_145352_157
-0.45044887,3.4953158,9.119047,0.0013744468,-0.0025961774,0.0047342055,20240202_145352_159
-0.42652065,3.5048869,9.104691,0.0013744468,-0.007483099,0.0047342055,20240202_145352_160
-0.421735,3.5144582,9.114262,0.0038179078,-0.0050396384,0.0035124752,20240202_145352_162
-0.42652065,3.5096726,9.114262,0.0013744468,-0.0050396384,0.0022907446,20240202_145352_165
-0.41694933,3.5144582,9.119047,0.0015271631,-0.007483099,0.0010690142,20240202_145352_167
-0.41694933,3.5240295,9.0951185,3.0543262E-4,-0.0050396384,-1.5271631E-4,20240202_145352_169
-0.40737805,3.5096726,9.114262,-9.162979E-4,-0.0038179078,-0.0013744468,20240202_145352_172
-0.41694933,3.519244,9.128618,-0.0021380284,-0.0062613687,-0.0013744468,20240202_145352_174
-0.4121637,3.5096726,9.114262,-0.0033597588,-0.0062613687,-0.0025961774,20240202_145352_178
-0.40259242,3.5096726,9.114262,-0.0033597588,-0.0025961774,-0.0050396384,20240202_145352_179
-0.3930211,3.4953158,9.114262,-0.0033597588,-0.0025961774,-0.0025961774,20240202_145352_181
-0.38823548,3.5001013,9.114262,-0.00580322,-0.0050396384,-0.0025961774,20240202_145352_182
-0.40259242,3.5048869,9.128618,-0.00580322,-0.0013744468,-0.0025961774,20240202_145352_185
-0.3930211,3.4953158,9.128618,-0.008246681,-0.0013744468,-0.0038179078,20240202_145352_188
-0.421735,3.5144582,9.123833,-0.00580322,0.0010690142,-0.0013744468,20240202_145352_189
-0.40737805,3.5144582,9.123833,-0.0070249503,0.0010690142,-1.5271631E-4,20240202_145352_192
-0.43130627,3.519244,9.119047,-0.0070249503,0.0035124752,-0.0013744468,20240202_145352_193
-0.4408776,3.519244,9.109476,-0.00580322,-1.5271631E-4,-0.0013744468,20240202_145352_195
-0.4456632,3.5001013,9.133404,-0.00580322,0.0010690142,-0.0013744468,20240202_145352_197
-0.46002015,3.4953158,9.100503,-0.004581489,0.0022907446,-0.0025961774,20240202_145352_200
-0.46959144,3.4953158,9.124431,-0.004581489,-0.0013744468,-0.0025961774,20240202_145352_202
-0.4456632,3.4953158,9.123833,-0.0021380284,0.0010690142,-0.0025961774,20240202_145352_203
-0.46002015,3.49053,9.134003,3.0543262E-4,0.0035124752,-0.0038179078,20240202_145352_206
-0.45044887,3.5001013,9.152547,-0.0021380284,-0.0025961774,-0.0025961774,20240202_145352_208
-0.46002015,3.4953158,9.152547,3.0543262E-4,0.0035124752,-0.0013744468,20240202_145352_210
-0.4743771,3.5048869,9.157332,0.0015271631,0.0010690142,-0.0025961774,20240202_145352_212
-0.4648058,3.5048869,9.147761,0.0027488936,-1.5271631E-4,-0.0013744468,20240202_145352_214
-0.4648058,3.4857445,9.138788,0.0025961774,0.0022907446,-0.0013744468,20240202_145352_216
-0.4552345,3.4761732,9.129216,0.0015271631,-1.5271631E-4,-0.0025961774,20240202_145352_219
-0.46002015,3.4666018,9.134003,0.0038179078,-0.0013744468,-0.0013744468,20240202_145352_221
-0.46002015,3.4713874,9.129216,0.003970624,-0.0025961774,-0.0013744468,20240202_145352_225
-0.4408776,3.4576287,9.110074,0.0038179078,-0.0013744468,-1.5271631E-4,20240202_145352_226
-0.43130627,3.4713874,9.123833,0.0027488936,-0.0050396384,-1.5271631E-4,20240202_145352_227
-0.4456632,3.461816,9.129216,0.0038179078,-0.0038179078,-1.5271631E-4,20240202_145352_229
-0.4408776,3.4666018,9.142975,3.0543262E-4,-0.0050396384,-1.5271631E-4,20240202_145352_232
-0.43609193,3.4570305,9.119645,0.0015271631,-0.0038179078,-0.0025961774,20240202_145352_234
-0.4456632,3.4713874,9.124431,-0.0021380284,-0.00992656,-0.0013744468,20240202_145352_236
-0.4408776,3.4761732,9.133404,-0.004581489,-0.0025961774,-0.0038179078,20240202_145352_238
-0.43130627,3.4809587,9.114262,-0.0033597588,-0.007483099,-0.0050396384,20240202_145352_243
-0.41694933,3.4761732,9.104691,-0.004581489,-0.00870483,-0.0062613687,20240202_145352_243
-0.4121637,3.4857445,9.104691,-0.00580322,-0.007483099,-0.0062613687,20240202_145352_244
-0.40737805,3.4809587,9.109476,-0.0070249503,-0.007483099,-0.0062613687,20240202_145352_247
-0.4121637,3.4761732,9.123833,-0.004581489,-0.0038179078,-0.007483099,20240202_145352_249
-0.41694933,3.5001013,9.128618,-0.008246681,-0.007483099,-0.0038179078,20240202_145352_250
-0.40737805,3.4953158,9.138189,-0.008246681,-0.0025961774,-0.0062613687,20240202_145352_253
-0.43130627,3.5096726,9.133404,-0.009468411,-0.0038179078,-0.0062613687,20240202_145352_257
-0.43130627,3.5288153,9.162118,-0.0106901415,-0.0050396384,-0.006414085,20240202_145352_258
-0.421735,3.5144582,9.128618,-0.008246681,-1.5271631E-4,-0.0062613687,20240202_145352_260
-0.40737805,3.5096726,9.080762,-0.008246681,-0.0025961774,-0.0062613687,20240202_145352_262
-0.42652065,3.519244,9.109476,-0.0070249503,-0.0025961774,-0.0050396384,20240202_145352_264
-0.41694933,3.5144582,9.099904,-0.00580322,-0.0013744468,-0.0038179078,20240202_145352_266
-0.42652065,3.5096726,9.0951185,-0.0033597588,-1.5271631E-4,-0.0050396384,20240202_145352_268
-0.421735,3.5048869,9.147761,-0.0021380284,-0.0013744468,-0.0025961774,20240202_145352_270
-0.41694933,3.5144582,9.157332,-9.162979E-4,0.0047342055,-0.0013744468,20240202_145352_272
-0.421735,3.5144582,9.147761,0.0013744468,0.008246681,-1.5271631E-4,20240202_145352_274
-0.41694933,3.5048869,9.171689,0.0013744468,0.0070249503,0.0010690142,20240202_145352_276
-0.421735,3.5096726,9.157332,0.0050396384,0.0143553335,0.0010690142,20240202_145352_278
-0.41694933,3.4953158,9.142975,0.0062613687,0.013133603,0.0022907446,20240202_145352_281
-0.43609193,3.5001013,9.123833,0.00992656,0.013133603,0.004886922,20240202_145352_283
-0.4408776,3.49053,9.128618,0.012370021,0.019242255,0.0036651916,20240202_145352_286
-0.4408776,3.4857445,9.109476,0.013591751,0.0143553335,0.0061086523,20240202_145352_288
-0.45044887,3.4713874,9.119645,0.013591751,0.013133603,0.0061086523,20240202_145352_289
-0.4456632,3.4857445,9.123833,0.016035212,0.018020526,0.007330383,20240202_145352_292
-0.4743771,3.4809587,9.138788,0.016035212,0.018020526,0.007330383,20240202_145352_294
-0.47916272,3.4857445,9.134003,0.013591751,0.0143553335,0.0061086523,20240202_145352_296
-0.48873404,3.4857445,9.134003,0.013591751,0.013133603,0.0061086523,20240202_145352_298
-0.49292147,3.4713874,9.119645,0.012370021,0.0106901415,0.0036651916,20240202_145352_300
-0.48394838,3.4713874,9.119645,0.00992656,0.005955936,0.0035124752,20240202_145352_302
-0.48394838,3.4857445,9.124431,0.00992656,0.0047342055,0.0010690142,20240202_145352_304
-0.48873404,3.4857445,9.134003,0.00870483,0.0010690142,-1.5271631E-4,20240202_145352_306
-0.48394838,3.4761732,9.124431,0.007483099,0.0022907446,-0.0025961774,20240202_145352_308
-0.48873404,3.4761732,9.129216,0.0027488936,-0.0013744468,-0.0025961774,20240202_145352_311
-0.48873404,3.4953158,9.134003,0.0015271631,-0.0013744468,-0.0025961774,20240202_145352_313
-0.4743771,3.4713874,9.148359,-0.0033597588,-0.0013744468,-0.0038179078,20240202_145352_315
-0.48394838,3.4857445,9.119645,-0.00580322,-0.0025961774,-0.0050396384,20240202_145352_317
-0.48873404,3.4761732,9.124431,-0.0070249503,-0.0025961774,-0.0038179078,20240202_145352_320
-0.47916272,3.4672,9.1052885,-0.009468411,-0.0050396384,-0.0025961774,20240202_145352_322
-0.47856453,3.4672,9.08136,-0.0106901415,-0.0050396384,-0.0027488936,20240202_145352_324
-0.47377887,3.4624143,9.086145,-0.011911872,-0.0038179078,-3.0543262E-4,20240202_145352_327
-0.46959144,3.4719856,9.090932,-0.009468411,-0.007483099,-1.5271631E-4,20240202_145352_328
-0.46959144,3.4761732,9.11486,-0.011911872,-0.007483099,-3.0543262E-4,20240202_145352_331
-0.45044887,3.49053,9.109476,-0.0143553335,-0.0025961774,9.162979E-4,20240202_145352_332
-0.4408776,3.4953158,9.104691,-0.011911872,-0.0050396384,9.162979E-4,20240202_145352_335
-0.4408776,3.5048869,9.099904,-0.011911872,-0.0025961774,0.0035124752,20240202_145352_337
-0.43609193,3.5048869,9.123833,-0.0106901415,-1.5271631E-4,0.0022907446,20240202_145352_339
-0.43609193,3.5240295,9.142975,-0.009468411,-1.5271631E-4,0.0047342055,20240202_145352_341
-0.43130627,3.5096726,9.128618,-0.008399397,0.0022907446,0.0047342055,20240202_145352_343
-0.42652065,3.5001013,9.128618,-0.005955936,0.0035124752,0.0047342055,20240202_145352_345
-0.421735,3.4857445,9.128618,-0.0047342055,0.00580322,0.0071776668,20240202_145352_348
-0.42652065,3.5001013,9.109476,1.5271631E-4,0.005955936,0.0071776668,20240202_145352_350
-0.41694933,3.5001013,9.114262,1.5271631E-4,0.0070249503,0.008399397,20240202_145352_355
-0.4121637,3.5048869,9.128618,0.0013744468,0.0071776668,0.008399397,20240202_145352_356
-0.39780676,3.5096726,9.138189,0.0025961774,0.0047342055,0.0096211275,20240202_145352_356
-0.40737805,3.5096726,9.142975,0.0050396384,0.005955936,0.0096211275,20240202_145352_358
-0.4121637,3.5144582,9.147761,0.0050396384,0.0071776668,0.0096211275,20240202_145352_360
-0.4121637,3.5096726,9.142975,0.0050396384,0.0070249503,0.0096211275,20240202_145352_362
-0.4121637,3.4953158,9.157332,0.0050396384,0.005955936,0.0096211275,20240202_145352_364
-0.41694933,3.5001013,9.152547,0.0050396384,0.008246681,0.008399397,20240202_145352_367
-0.41694933,3.4857445,9.152547,0.0050396384,0.009468411,0.008399397,20240202_145352_369
-0.41694933,3.4713874,9.142975,0.0050396384,0.005955936,0.008399397,20240202_145352_371
-0.41694933,3.4809587,9.133404,0.0038179078,0.009468411,0.008399397,20240202_145352_373
-0.43609193,3.4713874,9.142975,0.0050396384,0.011911872,0.0071776668,20240202_145352_376
-0.421735,3.4570305,9.128618,0.0062613687,0.009468411,0.005955936,20240202_145352_377
-0.43130627,3.4672,9.099904,0.0062613687,0.0106901415,0.005955936,20240202_145352_380
-0.43130627,3.4713874,9.119047,0.0062613687,0.013133603,0.0047342055,20240202_145352_382
-0.42652065,3.4719856,9.109476,0.00870483,0.011911872,0.004886922,20240202_145352_384
-0.43609193,3.4672,9.104691,0.00870483,0.0106901415,0.002443461,20240202_145352_386
-0.43130627,3.4809587,9.123833,0.00870483,0.0143553335,0.0012217305,20240202_145352_388
-0.45044887,3.4809587,9.138189,0.012370021,0.009468411,-0.0,20240202_145352_391
-0.4552345,3.4666018,9.128618,0.00992656,0.0106901415,0.0012217305,20240202_145352_393
-0.4456632,3.4570305,9.128618,0.011148291,0.015577064,-0.0012217305,20240202_145352_395
-0.46959144,3.4522448,9.134003,0.011148291,0.009468411,-0.0012217305,20240202_145352_397
-0.46959144,3.4426737,9.148359,0.011148291,0.0106901415,-0.0012217305,20240202_145352_400
-0.4881358,3.4474592,9.143574,0.011148291,0.013133603,-0.002443461,20240202_145352_401
-0.4881358,3.4480574,9.134003,0.011148291,0.0047342055,-0.0025961774,20240202_145352_404
-0.51206404,3.4522448,9.134003,0.011148291,0.0071776668,-0.002443461,20240202_145352_406
-0.49292147,3.4570305,9.153145,0.011148291,0.0071776668,-0.0012217305,20240202_145352_407
-0.49292147,3.4666018,9.153145,0.011148291,0.0010690142,-1.5271631E-4,20240202_145352_410
-0.49351966,3.4809587,9.157332,0.00992656,-1.5271631E-4,-1.5271631E-4,20240202_145352_412
-0.47916272,3.4761732,9.147761,0.00870483,0.0035124752,0.0022907446,20240202_145352_414
-0.47916272,3.4809587,9.147761,0.00992656,-0.0013744468,0.0022907446,20240202_145352_416
-0.47916272,3.4953158,9.147761,0.00992656,-0.0013744468,0.005955936,20240202_145352_418
-0.47916272,3.5048869,9.128618,0.012370021,0.0010690142,0.002443461,20240202_145352_421
-0.4648058,3.5001013,9.133404,0.011148291,-0.0038179078,0.0022907446,20240202_145352_422
-0.4648058,3.4953158,9.128618,0.011148291,-0.0038179078,0.0047342055,20240202_145352_425
-0.46002015,3.5001013,9.0951185,0.014813482,-0.0013744468,0.0036651916,20240202_145352_427
-0.4648058,3.5096726,9.0951185,0.011148291,-0.0050396384,0.005955936,20240202_145352_429
-0.4648058,3.519244,9.104691,0.012370021,-0.0062613687,0.0035124752,20240202_145352_431
-0.4552345,3.5288153,9.085547,0.00870483,-0.0050396384,0.0022907446,20240202_145352_434
-0.4552345,3.5096726,9.095717,0.00870483,-0.00870483,0.0022907446,20240202_145352_435
-0.46002015,3.5096726,9.100503,0.0050396384,-0.007483099,0.0010690142,20240202_145352_438
-0.4648058,3.519244,9.090932,0.0025961774,-0.0038179078,0.0022907446,20240202_145352_439
-0.4648058,3.5144582,9.086145,3.0543262E-4,-0.007483099,0.0010690142,20240202_145352_441
-0.4552345,3.5096726,9.100503,-0.0033597588,-0.007483099,-1.5271631E-4,20240202_145352_444
-0.4408776,3.5144582,9.104691,-0.008246681,-0.0050396384,0.0010690142,20240202_145352_446
-0.43609193,3.5240295,9.109476,-0.011911872,-0.00870483,-3.0543262E-4,20240202_145352_449
-0.43609193,3.5383866,9.090333,-0.018020526,-0.00870483,0.0021380284,20240202_145352_451
-0.43609193,3.5336008,9.099904,-0.018020526,-0.0062613687,0.0021380284,20240202_145352_454
-0.4408776,3.5240295,9.099904,-0.018020526,-0.007483099,0.0021380284,20240202_145352_455
-0.4408776,3.5144582,9.104691,-0.019242255,-0.0062613687,9.162979E-4,20240202_145352_460
-0.4456632,3.5096726,9.104691,-0.021685716,-0.0062613687,9.162979E-4,20240202_145352_461
-0.43609193,3.5144582,9.119047,-0.022907447,-0.00870483,9.162979E-4,20240202_145352_462
-0.4456632,3.5001013,9.099904,-0.022907447,-0.007483099,9.162979E-4,20240202_145352_464
-0.45044887,3.4953158,9.1052885,-0.018020526,-0.0025961774,0.0021380284,20240202_145352_466
-0.4408776,3.49053,9.119047,-0.018020526,-0.00992656,0.0021380284,20240202_145352_467
-0.4456632,3.4953158,9.109476,-0.018020526,-0.007483099,0.0021380284,20240202_145352_470
-0.4552345,3.4953158,9.1669035,-0.015577064,-0.0062613687,9.162979E-4,20240202_145352_473
-0.4456632,3.4713874,9.147761,-0.013133603,-0.00870483,0.0021380284,20240202_145352_474
-0.4408776,3.4857445,9.1669035,-0.0106901415,-0.0062613687,9.162979E-4,20240202_145352_477
-0.45044887,3.4857445,9.1669035,-0.0070249503,-0.0062613687,0.0010690142,20240202_145352_479
-0.43609193,3.4809587,9.162118,-0.0070249503,-0.0050396384,0.0010690142,20240202_145352_482
-0.43609193,3.4761732,9.171689,-0.0021380284,-0.0050396384,-1.5271631E-4,20240202_145352_483
-0.43609193,3.4761732,9.162118,0.0015271631,-0.0038179078,-1.5271631E-4,20240202_145352_485
-0.43130627,3.461816,9.171689,0.0025961774,-0.0038179078,0.0010690142,20240202_145352_487
-0.43609193,3.4474592,9.162118,0.0062613687,-0.0038179078,-1.5271631E-4,20240202_145352_489
-0.4456632,3.4570305,9.157332,0.0062613687,-0.0025961774,-0.0013744468,20240202_145352_492
-0.43609193,3.4426737,9.157332,0.00870483,-0.0013744468,-0.0013744468,20240202_145352_493
-0.4456632,3.437888,9.143574,0.012370021,-0.0025961774,-1.5271631E-4,20240202_145352_496
-0.4456632,3.4426737,9.143574,0.012370021,-0.0025961774,-0.0013744468,20240202_145352_498
-0.45044887,3.4426737,9.148359,0.011148291,-1.5271631E-4,-0.0013744468,20240202_145352_500
-0.4408776,3.4522448,9.152547,0.011148291,-0.0038179078,-0.0025961774,20240202_145352_501
-0.4408776,3.4426737,9.134003,0.012370021,-0.0050396384,-0.0013744468,20240202_145352_504
-0.421735,3.4522448,9.147761,0.013591751,-1.5271631E-4,-0.0038179078,20240202_145352_506
-0.40737805,3.4528432,9.114262,0.013591751,-0.0013744468,-0.0025961774,20240202_145352_508
-0.4121637,3.4713874,9.123833,0.0125227375,-0.0050396384,-0.0062613687,20240202_145352_511
-0.4121637,3.4761732,9.138189,0.012370021,-0.0025961774,-0.0050396384,20240202_145352_512
-0.42652065,3.4857445,9.119047,0.012370021,-1.5271631E-4,-0.007483099,20240202_145352_515
-0.4121637,3.4809587,9.128618,0.010079277,-0.0025961774,-0.0062613687,20240202_145352_519
-0.421735,3.4953158,9.128618,0.008857546,-0.0025961774,-0.007483099,20240202_145352_519
-0.40737805,3.5001013,9.114262,0.008857546,0.0010690142,-0.00870483,20240202_145352_521
-0.41694933,3.5001013,9.133404,0.010079277,-1.5271631E-4,-0.00992656,20240202_145352_523
-0.43609193,3.5144582,9.104691,0.0076358155,-0.0050396384,-0.00992656,20240202_145352_526
-0.43130627,3.5096726,9.109476,0.0076358155,-0.0013744468,-0.00992656,20240202_145352_528
-0.421735,3.519244,9.0951185,0.005192355,-0.0038179078,-0.007483099,20240202_145352_530
-0.43130627,3.519244,9.0951185,0.003970624,-0.0013744468,-0.00992656,20240202_145352_533
-0.43130627,3.5240295,9.104691,0.005192355,-0.0025961774,-0.00870483,20240202_145352_534
-0.42652065,3.5431721,9.128618,0.0027488936,-0.0038179078,-0.00870483,20240202_145352_537
-0.43609193,3.5336008,9.114262,3.0543262E-4,-0.0038179078,-0.00870483,20240202_145352_539
-0.4121637,3.5479577,9.109476,0.0015271631,-0.0025961774,-0.00870483,20240202_145352_542
-0.43130627,3.5479577,9.104691,0.0015271631,-0.0050396384,-0.00870483,20240202_145352_543
-0.42652065,3.5527434,9.099904,3.0543262E-4,-0.0050396384,-0.00992656,20240202_145352_546
-0.42652065,3.5288153,9.109476,3.0543262E-4,-0.0038179078,-0.00870483,20240202_145352_547
-0.421735,3.5383866,9.104691,3.0543262E-4,-0.00870483,-0.00992656,20240202_145352_549
-0.421735,3.519244,9.138189,-9.162979E-4,-0.0025961774,-0.012370021,20240202_145352_552
-0.40737805,3.5001013,9.119047,-0.0021380284,-0.0038179078,-0.012370021,20240202_145352_554
-0.41694933,3.5096726,9.114262,-9.162979E-4,-0.007483099,-0.012370021,20240202_145352_556
-0.421735,3.5144582,9.119047,-0.0033597588,-0.0013744468,-0.014813482,20240202_145352_558
-0.43609193,3.49053,9.123833,-0.004581489,-0.0025961774,-0.016035212,20240202_145352_560
-0.43609193,3.4953158,9.109476,-0.00580322,-0.0062613687,-0.016035212,20240202_145352_562
-0.45044887,3.4809587,9.100503,-0.0070249503,-0.0038179078,-0.016035212,20240202_145352_564
-0.45044887,3.4713874,9.124431,-0.009468411,-0.0050396384,-0.016187929,20240202_145352_567
-0.4552345,3.4761732,9.110074,-0.009468411,-0.007483099,-0.01740966,20240202_145352_569
-0.4648058,3.4666018,9.124431,-0.0106901415,-0.0062613687,-0.01985312,20240202_145352_571
-0.4648058,3.49053,9.138788,-0.010537425,-0.00870483,-0.01985312,20240202_145352_572
-0.46002015,3.4809587,9.138788,-0.010537425,-0.0062613687,-0.02107485,20240202_145352_575
-0.46002015,3.4953158,9.134003,-0.010537425,-0.0050396384,-0.02107485,20240202_145352_577
-0.46002015,3.5001013,9.124431,-0.011759156,-0.00992656,-0.023518313,20240202_145352_580
-0.46959144,3.49053,9.153145,-0.011759156,-0.007483099,-0.023518313,20240202_145352_581
-0.4743771,3.4857445,9.143574,-0.009315695,-0.007483099,-0.024740042,20240202_145352_584
-0.47916272,3.4857445,9.153145,-0.009315695,-0.012370021,-0.024740042,20240202_145352_586
-0.48394838,3.4761732,9.162716,-0.008093964,-0.00870483,-0.023518313,20240202_145352_588
-0.4977071,3.4570305,9.124431,-0.004581489,-0.00870483,-0.022296581,20240202_145352_590
-0.48873404,3.4522448,9.134003,-0.0033597588,-0.00870483,-0.019700404,20240202_145352_592
-0.48873404,3.461816,9.153145,-0.004581489,-0.013591751,-0.01863139,20240202_145352_594
-0.4743771,3.4570305,9.143574,-9.162979E-4,-0.0050396384,-0.018478673,20240202_145352_597
-0.48394838,3.4522448,9.148359,0.0015271631,-0.0062613687,-0.016035212,20240202_145352_599
-0.46959144,3.4713874,9.172287,0.0027488936,-0.00870483,-0.016035212,20240202_145352_602
-0.46959144,3.4666018,9.134003,0.003970624,-0.007483099,-0.013591751,20240202_145352_602
-0.46959144,3.4666018,9.138788,0.0076358155,-0.00870483,-0.012370021,20240202_145352_606
-0.4552345,3.4953158,9.129216,0.0076358155,-0.012370021,-0.012370021,20240202_145352_607
-0.4552345,3.5001013,9.124431,0.010079277,-0.00870483,-0.011148291,20240202_145352_609
-0.4552345,3.4761732,9.124431,0.010079277,-0.00992656,-0.012370021,20240202_145352_612
-0.4648058,3.49053,9.15793,0.0125227375,-0.00870483,-0.00992656,20240202_145352_614
-0.45044887,3.4761732,9.167501,0.011301007,-0.007483099,-0.00992656,20240202_145352_617
-0.46002015,3.4857445,9.138788,0.010079277,-0.0050396384,-0.011148291,20240202_145352_619
-0.4552345,3.4809587,9.124431,0.008857546,-0.007483099,-0.00870483,20240202_145352_621
-0.4552345,3.49053,9.124431,0.010079277,-0.00870483,-0.011148291,20240202_145352_623
-0.4552345,3.4857445,9.100503,0.008857546,-0.0062613687,-0.00992656,20240202_145352_625
-0.4408776,3.49053,9.095717,0.006414085,-0.012370021,-0.011148291,20240202_145352_627
-0.4408776,3.4953158,9.08136,0.008857546,-0.00992656,-0.00992656,20240202_145352_629
-0.43609193,3.481557,9.076574,0.006414085,-0.00992656,-0.011148291,20240202_145352_631
-0.43130627,3.49053,9.100503,0.006414085,-0.013591751,-0.011148291,20240202_145352_632
-0.4121637,3.49053,9.109476,0.003970624,-0.012370021,-0.00992656,20240202_145352_635
-0.40737805,3.5096726,9.142975,0.0027488936,-0.00870483,-0.012370021,20240202_145352_637
-0.421735,3.519244,9.128618,0.0015271631,-0.011148291,-0.00992656,20240202_145352_639
-0.421735,3.519244,9.133404,-9.162979E-4,-0.00870483,-0.011148291,20240202_145352_642
-0.42652065,3.4953158,9.133404,-0.0021380284,-0.0038179078,-0.00992656,20240202_145352_644
-0.42652065,3.5144582,9.119047,-9.162979E-4,-0.007483099,-0.00992656,20240202_145352_645
-0.4408776,3.519244,9.099904,3.0543262E-4,-0.0050396384,-0.00870483,20240202_145352_648
-0.4456632,3.5048869,9.109476,0.0015271631,-0.0025961774,-0.007483099,20240202_145352_650
-0.43130627,3.5048869,9.085547,-9.162979E-4,-0.007483099,-0.007483099,20240202_145352_652
-0.43609193,3.519244,9.0951185,-9.162979E-4,-0.00870483,-0.0062613687,20240202_145352_654
-0.4408776,3.5144582,9.104691,3.0543262E-4,-0.0025961774,-0.0050396384,20240202_145352_657
-0.45044887,3.519244,9.133404,3.0543262E-4,-0.0013744468,-0.0050396384,20240202_145352_658
-0.45044887,3.5096726,9.142975,-9.162979E-4,-0.0062613687,-0.0050396384,20240202_145352_660
-0.45044887,3.519244,9.147761,-9.162979E-4,-0.0013744468,-0.0038179078,20240202_145352_662
-0.45044887,3.5288153,9.138189,-9.162979E-4,0.0010690142,-0.0050396384,20240202_145352_665
-0.4456632,3.5240295,9.114262,-0.0033597588,-1.5271631E-4,-0.0038179078,20240202_145352_667
-0.4552345,3.5144582,9.099904,-0.0021380284,-0.0013744468,-0.0025961774,20240202_145352_669
-0.46002015,3.505485,9.076574,-0.0033597588,0.0010690142,-0.0013744468,20240202_145352_671
-0.4648058,3.49053,9.090932,-0.0021380284,-0.0038179078,0.0010690142,20240202_145352_674
-0.4456632,3.4857445,9.095717,-0.0033597588,-0.0038179078,0.0010690142,20240202_145352_676
-0.4456632,3.4761732,9.110074,-0.0010690142,0.0047342055,0.0022907446,20240202_145352_678
-0.4552345,3.4713874,9.142975,-0.0021380284,-0.0013744468,0.0022907446,20240202_145352_680
-0.46959144,3.4761732,9.134003,-0.0035124752,-1.5271631E-4,0.0047342055,20240202_145352_682
-0.45044887,3.4953158,9.133404,-0.0035124752,0.0035124752,0.0047342055,20240202_145352_684
-0.4552345,3.4809587,9.142975,-0.0047342055,0.0010690142,0.0047342055,20240202_145352_686
-0.46959144,3.4761732,9.143574,-0.0035124752,0.0010690142,0.005955936,20240202_145352_689
-0.46959144,3.4809587,9.119645,1.5271631E-4,0.005955936,0.005955936,20240202_145352_691
-0.4648058,3.4857445,9.124431,0.0013744468,0.0047342055,0.005955936,20240202_145352_693
-0.46002015,3.49053,9.128618,1.5271631E-4,0.0022907446,0.0071776668,20240202_145352_695
-0.4456632,3.49053,9.128618,1.5271631E-4,0.0047342055,0.005955936,20240202_145352_697
-0.4408776,3.4953158,9.123833,1.5271631E-4,-1.5271631E-4,0.005955936,20240202_145352_700
-0.4456632,3.5001013,9.138189,1.5271631E-4,-1.5271631E-4,0.0071776668,20240202_145352_702
-0.45044887,3.4857445,9.147761,1.5271631E-4,0.0047342055,0.005955936,20240202_145352_706
-0.43130627,3.49053,9.142975,-0.0022907446,-1.5271631E-4,0.0071776668,20240202_145352_707
-0.45044887,3.4761732,9.153145,-0.0033597588,-0.0025961774,0.0047342055,20240202_145352_707
-0.46002015,3.4857445,9.134003,-0.0022907446,0.0022907446,0.0047342055,20240202_145352_710
-0.4456632,3.4857445,9.119645,-0.0047342055,0.0022907446,0.0047342055,20240202_145352_712
-0.4456632,3.4809587,9.124431,-0.0033597588,-1.5271631E-4,0.0035124752,20240202_145352_714
-0.4408776,3.4666018,9.134003,-0.0022907446,0.0022907446,0.0047342055,20240202_145352_716
-0.42652065,3.4809587,9.124431,-0.004581489,0.0035124752,0.0035124752,20240202_145352_719
-0.421735,3.4761732,9.1052885,-0.0070249503,0.0022907446,0.0035124752,20240202_145352_721
-0.421735,3.49053,9.134003,-0.0035124752,0.005955936,0.0035124752,20240202_145352_724
-0.43609193,3.4857445,9.124431,-0.0070249503,0.0022907446,0.0022907446,20240202_145352_725
-0.43609193,3.4713874,9.124431,-0.0070249503,0.0022907446,0.0022907446,20240202_145352_728
-0.45044887,3.4809587,9.143574,-0.00580322,0.0035124752,-1.5271631E-4,20240202_145352_729
-0.4456632,3.49053,9.129216,-0.004581489,0.0047342055,0.0022907446,20240202_145352_731
-0.45044887,3.4809587,9.138788,-0.004581489,0.0047342055,-1.5271631E-4,20240202_145352_733
-0.45044887,3.4857445,9.124431,-0.004581489,0.005955936,0.0010690142,20240202_145352_736
-0.45044887,3.4857445,9.134003,-0.0033597588,0.0071776668,0.0010690142,20240202_145352_737
-0.4408776,3.4809587,9.138788,-0.0010690142,0.0071776668,-1.5271631E-4,20240202_145352_740
-0.4456632,3.4953158,9.138788,0.0013744468,0.0047342055,0.0022907446,20240202_145352_743
-0.46002015,3.5048869,9.134003,1.5271631E-4,0.0071776668,-1.5271631E-4,20240202_145352_745
-0.4408776,3.5001013,9.148359,0.0038179078,0.0071776668,0.0022907446,20240202_145352_747
-0.46002015,3.5048869,9.143574,0.0038179078,0.0047342055,0.0010690142,20240202_145352_750
-0.4456632,3.5096726,9.153145,0.0038179078,0.005955936,0.0035124752,20240202_145352_751
-0.4456632,3.5096726,9.143574,0.0062613687,0.0047342055,0.0035124752,20240202_145352_753
-0.4408776,3.5001013,9.138788,0.007483099,0.0022907446,0.0022907446,20240202_145352_755
-0.4456632,3.5048869,9.143574,0.007483099,0.0047342055,0.0047342055,20240202_145352_757
-0.45044887,3.4953158,9.124431,0.00992656,0.0035124752,0.0022907446,20240202_145352_760
-0.46002015,3.4809587,9.119645,0.011148291,0.0022907446,0.005955936,20240202_145352_762
-0.4456632,3.5048869,9.119645,0.011148291,0.0022907446,0.005955936,20240202_145352_764
-0.4408776,3.5001013,9.11486,0.00992656,0.0010690142,0.0071776668,20240202_145352_766
-0.46002015,3.5001013,9.11486,0.00992656,-0.0013744468,0.0071776668,20240202_145352_768
-0.46959144,3.4953158,9.119645,0.00992656,-1.5271631E-4,0.005955936,20240202_145352_770
-0.4648058,3.5001013,9.134003,0.007483099,0.0010690142,0.008399397,20240202_145352_772
-0.46002015,3.5048869,9.124431,0.00870483,-0.0013744468,0.0071776668,20240202_145352_774
-0.4552345,3.5048869,9.129216,0.0050396384,0.0010690142,0.010842858,20240202_145352_777
-0.45044887,3.5001013,9.124431,0.0062613687,0.005955936,0.010842858,20240202_145352_780
-0.46002015,3.5001013,9.100503,0.0038179078,0.0035124752,0.012064588,20240202_145352_781
-0.4408776,3.5048869,9.1052885,0.0038179078,0.0047342055,0.013286319,20240202_145352_783
-0.4408776,3.5144582,9.086145,0.0050396384,0.0047342055,0.013286319,20240202_145352_785
-0.43130627,3.5048869,9.086145,0.0050396384,0.0047342055,0.01572978,20240202_145352_788
-0.46959144,3.5001013,9.090932,0.0050396384,0.0047342055,0.01450805,20240202_145352_789
-0.4408776,3.519244,9.08136,0.0050396384,0.0010690142,0.01572978,20240202_145352_793
-0.4552345,3.5096726,9.095717,0.0050396384,0.0035124752,0.01572978,20240202_145352_793
-0.46002015,3.5048869,9.1052885,0.0038179078,0.0010690142,0.01450805,20240202_145352_796
-0.4552345,3.5001013,9.11486,0.0050396384,0.0010690142,0.01572978,20240202_145352_798
-0.45044887,3.4857445,9.119645,0.0038179078,0.0047342055,0.01450805,20240202_145352_800
-0.45044887,3.4953158,9.129216,0.0038179078,0.0035124752,0.013286319,20240202_145352_802
-0.4456632,3.4953158,9.138788,0.0013744468,0.0010690142,0.013286319,20240202_145352_804
-0.4408776,3.4953158,9.124431,0.0013744468,0.0022907446,0.012064588,20240202_145352_807
-0.43609193,3.49053,9.124431,0.0013744468,0.0010690142,0.010842858,20240202_145352_809
-0.43609193,3.4953158,9.119645,0.0013744468,-0.0025961774,0.0096211275,20240202_145352_812
-0.43609193,3.4809587,9.129216,-0.0010690142,-0.0013744468,0.0071776668,20240202_145352_813
-0.42652065,3.4953158,9.138788,-0.0022907446,-0.0038179078,0.005955936,20240202_145352_815
-0.43130627,3.49053,9.172287,-0.0033597588,-0.0050396384,0.005955936,20240202_145352_818
-0.421735,3.49053,9.153145,-0.004581489,-0.0038179078,0.0035124752,20240202_145352_821
-0.43609193,3.4713874,9.15793,-0.0033597588,-0.0013744468,0.0035124752,20240202_145352_822
-0.42652065,3.4857445,9.134003,-0.004581489,-0.0050396384,0.0022907446,20240202_145352_825
-0.41694933,3.4857445,9.129216,-0.0070249503,-0.007483099,0.0010690142,20240202_145352_826
-0.43609193,3.4522448,9.11486,-0.00580322,-0.0050396384,-0.0013744468,20240202_145352_829
-0.42652065,3.4666018,9.124431,-9.162979E-4,-0.0050396384,-0.0013744468,20240202_145352_830
-0.40737805,3.4522448,9.11486,-0.0033597588,-0.007483099,-0.0038179078,20240202_145352_833
-0.43609193,3.4713874,9.124431,-0.0033597588,-0.00870483,-0.0025961774,20240202_145352_835
-0.42652065,3.4570305,9.134003,-9.162979E-4,-0.0038179078,-0.0038179078,20240202_145352_837
-0.43130627,3.4570305,9.124431,-9.162979E-4,-0.0062613687,-0.0050396384,20240202_145352_839
-0.421735,3.4666018,9.134003,-0.0021380284,-0.0050396384,-0.0062613687,20240202_145352_841
-0.43609193,3.4570305,9.11486,-9.162979E-4,-0.0038179078,-0.007483099,20240202_145352_843
-0.42652065,3.4474592,9.143574,-9.162979E-4,-0.0025961774,-0.0062613687,20240202_145352_845
-0.42652065,3.461816,9.143574,-9.162979E-4,-0.0050396384,-0.007483099,20240202_145352_848
-0.4408776,3.4713874,9.129216,0.0015271631,-0.0013744468,-0.007483099,20240202_145352_850
-0.4456632,3.4666018,9.134003,-9.162979E-4,-1.5271631E-4,-0.0062613687,20240202_145352_852
-0.4456632,3.4666018,9.134003,0.003970624,-0.0013744468,-0.007483099,20240202_145352_854
-0.4456632,3.4761732,9.148359,0.0027488936,-1.5271631E-4,-0.0050396384,20240202_145352_858
-0.4408776,3.4857445,9.143574,0.006414085,0.0022907446,-0.0062613687,20240202_145352_858
-0.46002015,3.5001013,9.148359,0.003970624,-1.5271631E-4,-0.0038179078,20240202_145352_861
-0.46002015,3.4953158,9.124431,0.005192355,-1.5271631E-4,-0.0038179078,20240202_145352_862
-0.46002015,3.4953158,9.138788,0.0076358155,0.0010690142,-0.0038179078,20240202_145352_865
-0.4552345,3.5001013,9.134003,0.00870483,-1.5271631E-4,-0.0013744468,20240202_145352_867
-0.46002015,3.5240295,9.129216,0.00870483,-0.0013744468,-0.0013744468,20240202_145352_869
-0.45044887,3.519244,9.129216,0.011148291,-0.0038179078,-1.5271631E-4,20240202_145352_872
-0.4552345,3.5240295,9.124431,0.00992656,-0.0013744468,-1.5271631E-4,20240202_145352_874
-0.4456632,3.5336008,9.134003,0.00992656,-0.0025961774,0.0022907446,20240202_145352_876
-0.46002015,3.519244,9.110074,0.00992656,-0.0038179078,-1.5271631E-4,20240202_145352_878
-0.4743771,3.5240295,9.129216,0.00870483,-0.0025961774,0.0022907446,20240202_145352_881
-0.4552345,3.5096726,9.124431,0.00870483,-1.5271631E-4,0.0047342055,20240202_145352_882
-0.46959144,3.5096726,9.138788,0.00992656,-0.0013744468,0.0035124752,20240202_145352_885
-0.4648058,3.5144582,9.119645,0.0062613687,0.0022907446,0.005955936,20240202_145352_886
-0.4552345,3.5144582,9.1052885,0.007483099,0.0035124752,0.005955936,20240202_145352_889
-0.45044887,3.5144582,9.095717,0.0050396384,0.0022907446,0.008399397,20240202_145352_891
-0.45044887,3.5144582,9.100503,0.00870483,0.0022907446,0.010842858,20240202_145352_893
-0.45044887,3.5096726,9.086145,0.007483099,0.0035124752,0.0096211275,20240202_145352_895
-0.45044887,3.5096726,9.095717,0.0050396384,0.0022907446,0.012064588,20240202_145352_897
-0.4408776,3.5096726,9.095717,0.0050396384,0.005955936,0.0096211275,20240202_145352_899
-0.4408776,3.5096726,9.11486,0.0050396384,0.005955936,0.012064588,20240202_145352_901
-0.4456632,3.5096726,9.124431,0.0062613687,0.0035124752,0.0096211275,20240202_145352_905
-0.4408776,3.5144582,9.119645,0.0038179078,0.005955936,0.010842858,20240202_145352_905
-0.45044887,3.5144582,9.124431,0.0038179078,0.0035124752,0.0096211275,20240202_145352_908
-0.4408776,3.5096726,9.100503,0.0013744468,0.0022907446,0.0096211275,20240202_145352_910
-0.4552345,3.4953158,9.1052885,0.0013744468,0.0022907446,0.0071776668,20240202_145352_911
-0.4552345,3.4953158,9.11486,0.0038179078,-1.5271631E-4,0.005955936,20240202_145352_914
-0.4552345,3.5001013,9.134003,-0.0021380284,-0.0038179078,0.0047342055,20240202_145352_916
-0.45044887,3.4809587,9.124431,-0.0033597588,-0.007483099,0.0022907446,20240202_145352_919
-0.4456632,3.49053,9.129216,-0.0033597588,-0.007483099,0.0010690142,20240202_145352_921
-0.4552345,3.4857445,9.153145,-0.004581489,-0.011148291,-0.0025961774,20240202_145352_924
-0.4456632,3.4809587,9.167501,-0.0070249503,-0.012370021,-0.005192355,20240202_145352_925
-0.43609193,3.4666018,9.148359,-0.009468411,-0.014813482,-0.0076358155,20240202_145352_928
-0.41694933,3.5001013,9.142975,-0.009468411,-0.019547688,-0.011301007,20240202_145352_929
-0.43609193,3.4857445,9.162716,-0.010537425,-0.019547688,-0.013744468,20240202_145352_932
-0.4408776,3.4953158,9.162716,-0.010537425,-0.019547688,-0.014966198,20240202_145352_933
-0.42652065,3.49053,9.148359,-0.011759156,-0.02443461,-0.016187929,20240202_145352_936
-0.42652065,3.4713874,9.162716,-0.010537425,-0.021991149,-0.01740966,20240202_145352_938
-0.42652065,3.4713874,9.153145,-0.011759156,-0.02076942,-0.01863139,20240202_145352_941
-0.43609193,3.4857445,9.143574,-0.010537425,-0.021991149,-0.01985312,20240202_145352_942
-0.41694933,3.4809587,9.143574,-0.010537425,-0.02076942,-0.01985312,20240202_145352_944
-0.40259242,3.4761732,9.129216,-0.010537425,-0.018325957,-0.01985312,20240202_145352_946
-0.421735,3.4761732,9.129216,-0.009315695,-0.019547688,-0.02107485,20240202_145352_949
-0.43130627,3.4857445,9.134003,-0.006872234,-0.014813482,-0.01985312,20240202_145352_950
-0.421735,3.4666018,9.124431,-0.004581489,-0.012370021,-0.01863139,20240202_145352_953
-0.40737805,3.4761732,9.124431,-9.162979E-4,-0.011148291,-0.018478673,20240202_145352_955
-0.4121637,3.4857445,9.129216,3.0543262E-4,-0.0062613687,-0.016035212,20240202_145352_957
-0.40737805,3.49053,9.134003,0.0015271631,-0.0025961774,-0.014813482,20240202_145352_960
-0.41694933,3.4953158,9.134003,0.003970624,0.0010690142,-0.012370021,20240202_145352_961
-0.41694933,3.5001013,9.142975,0.005192355,0.0035124752,-0.011148291,20240202_145352_964
-0.43130627,3.5096726,9.134003,0.0076358155,0.0071776668,-0.00992656,20240202_145352_966
-0.421735,3.519244,9.123833,0.00992656,0.008399397,-0.007483099,20240202_145352_968
-0.43609193,3.5144582,9.110074,0.011148291,0.0096211275,-0.007483099,20240202_145352_970
-0.43130627,3.519244,9.110074,0.012370021,0.0096211275,-0.004886922,20240202_145352_972
-0.42652065,3.5240295,9.100503,0.012370021,0.0071776668,-0.002443461,20240202_145352_974
-0.42652065,3.519244,9.1052885,0.013591751,0.013286319,-0.0012217305,20240202_145352_977
-0.42652065,3.5144582,9.129216,0.013591751,0.010842858,-0.002443461,20240202_145352_978
-0.42652065,3.5288153,9.142975,0.011148291,0.0071776668,-0.0013744468,20240202_145352_981
-0.4408776,3.5431721,9.134003,0.00870483,0.013286319,0.0010690142,20240202_145352_983
-0.4408776,3.5336008,9.138788,0.0062613687,0.01450805,0.0022907446,20240202_145352_985
-0.4552345,3.5336008,9.153145,0.0050396384,0.0096211275,0.0022907446,20240202_145352_987
-0.43609193,3.5240295,9.138788,0.0038179078,0.01572978,0.0035124752,20240202_145352_989
-0.45044887,3.5144582,9.11486,0.0013744468,0.01450805,0.0022907446,20240202_145352_992
-0.4456632,3.5001013,9.086145,1.5271631E-4,0.012064588,0.0035124752,20240202_145352_993
-0.4408776,3.49053,9.090932,1.5271631E-4,0.010842858,0.0022907446,20240202_145352_996
-0.4456632,3.4953158,9.08136,-0.0022907446,0.0071776668,0.0022907446,20240202_145352_998
-0.43609193,3.49053,9.090932,-0.0035124752,0.0071776668,0.0022907446,20240202_145353_000
-0.46002015,3.49053,9.110074,-0.004581489,0.008399397,0.0022907446,20240202_145353_002
-0.45044887,3.4809587,9.095717,-0.0035124752,0.010842858,0.0035124752,20240202_145353_004
-0.46002015,3.4857445,9.110074,-0.0070249503,0.0071776668,0.0035124752,20240202_145353_006
-0.46002015,3.5001013,9.100503,-0.0070249503,0.0071776668,0.0035124752,20240202_145353_008
-0.46959144,3.4857445,9.1052885,-0.0070249503,0.005955936,0.0022907446,20240202_145353_011
-0.47916272,3.4809587,9.1052885,-0.00580322,0.0035124752,-1.5271631E-4,20240202_145353_012
-0.47916272,3.4713874,9.110074,-0.00580322,0.0035124752,-1.5271631E-4,20240202_145353_015
-0.48873404,3.4809587,9.11486,-0.00580322,-1.5271631E-4,-1.5271631E-4,20240202_145353_017
-0.4743771,3.4809587,9.124431,-0.0070249503,-0.0038179078,-0.0013744468,20240202_145353_020
-0.46959144,3.4761732,9.134003,-0.0070249503,-0.0038179078,-0.0025961774,20240202_145353_022
-0.46959144,3.4713874,9.172287,-0.008246681,-0.007483099,-0.003970624,20240202_145353_025
-0.46959144,3.4809587,9.186645,-0.008246681,-0.007483099,-0.005192355,20240202_145353_026
-0.46959144,3.5001013,9.201001,-0.009468411,-0.0062613687,-0.005192355,20240202_145353_028
-0.4648058,3.5048869,9.167501,-0.0106901415,-0.007483099,-0.006414085,20240202_145353_030
-0.4552345,3.5048869,9.162716,-0.009468411,-0.012217305,-0.006414085,20240202_145353_033
-0.45044887,3.5144582,9.138788,-0.009468411,-0.014660766,-0.008857546,20240202_145353_034
-0.4456632,3.5048869,9.124431,-0.008246681,-0.015882496,-0.0076358155,20240202_145353_037
-0.45044887,3.49053,9.1052885,-0.0070249503,-0.017104227,-0.008857546,20240202_145353_039
-0.45044887,3.49053,9.110074,-0.00580322,-0.017104227,-0.0076358155,20240202_145353_041
-0.4456632,3.4666018,9.11486,-0.004581489,-0.018325957,-0.008857546,20240202_145353_043
-0.43130627,3.4809587,9.119645,-0.004581489,-0.015882496,-0.0076358155,20240202_145353_045
-0.4552345,3.4522448,9.100503,-0.0033597588,-0.017104227,-0.006414085,20240202_145353_047
-0.46002015,3.4426737,9.08136,-0.0021380284,-0.018325957,-0.0050396384,20240202_145353_049
-0.4408776,3.4809587,9.1052885,-0.0021380284,-0.013439035,-0.0050396384,20240202_145353_052
-0.39780676,3.519244,9.119645,-0.0021380284,-0.013439035,-0.0038179078,20240202_145353_053
-0.3786642,3.5288153,9.123833,-0.004581489,-0.00992656,-0.0050396384,20240202_145353_056
-0.38344982,3.5240295,9.114262,-0.0033597588,-0.0025961774,-0.0038179078,20240202_145353_057
-0.3930211,3.5144582,9.147761,-0.0033597588,-1.5271631E-4,-0.0038179078,20240202_145353_060
-0.4121637,3.5144582,9.138788,-0.0021380284,0.0022907446,-0.0025961774,20240202_145353_062
-0.42652065,3.5048869,9.11486,-0.0021380284,0.005955936,-0.0025961774,20240202_145353_064
-0.43609193,3.5001013,9.119645,-9.162979E-4,0.0047342055,-0.0025961774,20240202_145353_067
-0.4408776,3.49053,9.11486,-0.0021380284,0.0047342055,-0.0038179078,20240202_145353_069
-0.42652065,3.5001013,9.1052885,-0.0021380284,0.0047342055,-0.0013744468,20240202_145353_070
-0.421735,3.4953158,9.110074,-0.0021380284,0.0047342055,-0.0013744468,20240202_145353_074
-0.42652065,3.4953158,9.100503,-0.0021380284,0.0022907446,-0.0013744468,20240202_145353_075
-0.43130627,3.5001013,9.095717,-0.0033597588,0.0010690142,-1.5271631E-4,20240202_145353_077
-0.42652065,3.5001013,9.11486,-0.0033597588,0.0022907446,0.0010690142,20240202_145353_080
-0.421735,3.519244,9.129216,-0.0033597588,0.0022907446,0.0035124752,20240202_145353_081
-0.42652065,3.519244,9.134003,-0.0021380284,0.0010690142,0.0010690142,20240202_145353_084
-0.4456632,3.5096726,9.129216,-0.0021380284,0.0022907446,0.0010690142,20240202_145353_085
-0.421735,3.5096726,9.134003,-0.0022907446,0.0035124752,0.0022907446,20240202_145353_088
-0.43130627,3.5096726,9.148359,-0.0010690142,0.0047342055,0.0010690142,20240202_145353_090
-0.4456632,3.5048869,9.143574,-0.0010690142,0.0096211275,0.0022907446,20240202_145353_092
-0.4456632,3.5001013,9.129216,1.5271631E-4,0.005955936,0.0010690142,20240202_145353_094
-0.43130627,3.4953158,9.11486,-9.162979E-4,0.0047342055,-1.5271631E-4,20240202_145353_097
-0.4408776,3.4761732,9.1052885,1.5271631E-4,0.008399397,-0.0013744468,20240202_145353_099
-0.4408776,3.4713874,9.1052885,0.0013744468,0.005955936,-1.5271631E-4,20240202_145353_101
-0.43609193,3.4666018,9.119645,0.0013744468,0.0071776668,-0.0013744468,20240202_145353_103
