acc_x,acc_y,acc_z,gyro_x,gyro_y,gyro_z,timestamp
-0.4749753,3.671188,9.226126,-9.162979E-4,0.0025961774,-0.00870483,20240202_145359_497
-0.47976094,3.6664026,9.183055,0.005192355,-0.0035124752,-0.007483099,20240202_145359_498
-0.47976094,3.6520455,9.183055,0.005192355,-0.0071776668,-0.007483099,20240202_145359_498
-0.465404,3.6329029,9.163913,0.011301007,-0.0106901415,-0.0050396384,20240202_145359_499
-0.43669012,3.609573,9.149555,0.014966198,-0.011911872,-0.0025961774,20240202_145359_499
-0.4319045,3.6000016,9.149555,0.01740966,-0.0106901415,-0.0013744468,20240202_145359_503
-0.43669012,3.5856447,9.1256275,0.01985312,-0.009468411,0.0010690142,20240202_145359_503
-0.43669012,3.5712879,9.11127,0.01863139,-0.005955936,0.0010690142,20240202_145359_505
-0.4319045,3.542574,9.082557,0.01740966,-0.0035124752,0.0047342055,20240202_145359_509
-0.4127619,3.5234313,9.039486,0.017256944,0.0025961774,0.005955936,20240202_145359_509
-0.41754755,3.5042887,9.035298,0.014813482,0.007483099,0.005955936,20240202_145359_512
-0.42652065,3.4809587,9.001799,0.011148291,0.007483099,0.0096211275,20240202_145359_514
-0.40737805,3.4570305,9.001799,0.0050396384,0.00870483,0.008399397,20240202_145359_516
-0.4121637,3.4570305,9.01137,0.0025961774,0.013591751,0.008399397,20240202_145359_518
-0.4121637,3.4474592,9.016156,-0.0021380284,0.012370021,0.008399397,20240202_145359_520
-0.40737805,3.4474592,9.030513,-0.008246681,0.013439035,0.0096211275,20240202_145359_522
-0.421735,3.4570305,9.040084,-0.0106901415,0.014660766,0.0071776668,20240202_145359_525
-0.43609193,3.4564323,9.073584,-0.0143553335,0.012217305,0.0070249503,20240202_145359_526
-0.45044887,3.475575,9.078369,-0.020463986,0.013439035,0.00580322,20240202_145359_528
-0.4456632,3.4851463,9.08794,-0.019242255,0.009773844,0.004581489,20240202_145359_531
-0.44626144,3.51386,9.135199,-0.021685716,0.008552114,0.0033597588,20240202_145359_533
-0.44147578,3.5186458,9.14477,-0.022907447,0.0025961774,0.0021380284,20240202_145359_535
-0.44626144,3.5186458,9.159127,-0.022907447,1.5271631E-4,9.162979E-4,20240202_145359_537
-0.45104706,3.51386,9.18784,-0.020463986,1.5271631E-4,9.162979E-4,20240202_145359_539
-0.45104706,3.5234313,9.211769,-0.02031127,-0.0022907446,-0.0015271631,20240202_145359_541
-0.4749753,3.5234313,9.230911,-0.01786781,-0.0047342055,-0.0027488936,20240202_145359_545
-0.47018966,3.5090744,9.245269,-0.0143553335,-0.0047342055,-0.0015271631,20240202_145359_545
-0.47018966,3.5090744,9.226126,-0.013133603,-0.0047342055,-0.0027488936,20240202_145359_547
-0.47018966,3.4995031,9.211769,-0.009468411,-0.005955936,9.162979E-4,20240202_145359_550
-0.45583272,3.4947174,9.202198,-0.004581489,-0.0047342055,-3.0543262E-4,20240202_145359_553
-0.44626144,3.5042887,9.18784,0.0015271631,-0.005955936,0.0035124752,20240202_145359_555
-0.44147578,3.4947174,9.154342,0.005192355,-0.0047342055,0.0035124752,20240202_145359_557
-0.4127619,3.4899318,9.139984,0.008857546,-0.0010690142,0.0047342055,20240202_145359_558
-0.4223332,3.475575,9.1256275,0.0125227375,-0.0035124752,0.0071776668,20240202_145359_561
-0.41754755,3.4707892,9.120842,0.016035212,1.5271631E-4,0.008399397,20240202_145359_563
-0.40797627,3.4564323,9.130413,0.017256944,0.0025961774,0.0096211275,20240202_145359_565
-0.4031906,3.4612179,9.1256275,0.019700404,0.0013744468,0.009773844,20240202_145359_567
-0.4127619,3.4660037,9.107083,0.020922136,0.0050396384,0.009773844,20240202_145359_569
-0.41754755,3.4564323,9.107083,0.022143865,0.012370021,0.009773844,20240202_145359_573
-0.39361933,3.4660037,9.11127,0.020922136,0.007483099,0.007330383,20240202_145359_573
-0.39361933,3.4803605,9.096913,0.019700404,0.012370021,0.0061086523,20240202_145359_576
-0.38883367,3.4803605,9.096913,0.016035212,0.013591751,0.004886922,20240202_145359_578
-0.39361933,3.475575,9.096913,0.014813482,0.00992656,0.0047342055,20240202_145359_580
-0.38404804,3.4803605,9.096913,0.011148291,0.013591751,0.0022907446,20240202_145359_582
-0.4031906,3.4947174,9.11127,0.005192355,0.011148291,-0.0013744468,20240202_145359_584
-0.4127619,3.4995031,9.130413,0.0027488936,0.007483099,-0.0013744468,20240202_145359_586
-0.41754755,3.5090744,9.120842,3.0543262E-4,0.007483099,-0.0050396384,20240202_145359_589
-0.43669012,3.5090744,9.1256275,-0.0033597588,0.0062613687,-0.0050396384,20240202_145359_590
-0.4223332,3.5042887,9.130413,-0.0070249503,0.0050396384,-0.008857546,20240202_145359_592
-0.4127619,3.4899318,9.130413,-0.008246681,1.5271631E-4,-0.0076358155,20240202_145359_595
-0.4408776,3.4707892,9.116654,-0.008246681,0.0013744468,-0.008857546,20240202_145359_597
-0.45583272,3.4899318,9.131011,-0.009468411,0.0013744468,-0.0076358155,20240202_145359_600
-0.45583272,3.51386,9.120842,-0.009468411,-0.0022907446,-0.006414085,20240202_145359_601
-0.46061835,3.5042887,9.1256275,-0.009315695,-0.0035124752,-0.008857546,20240202_145359_604
-0.46061835,3.51386,9.135199,-0.00580322,-0.0035124752,-0.006414085,20240202_145359_605
-0.47018966,3.5186458,9.154342,-0.004581489,-0.0035124752,-0.0076358155,20240202_145359_608
-0.47916272,3.5090744,9.14477,-9.162979E-4,1.5271631E-4,-0.0050396384,20240202_145359_610
-0.48394838,3.51386,9.159127,0.0015271631,1.5271631E-4,-0.0050396384,20240202_145359_612
-0.47916272,3.4995031,9.154342,0.003970624,-0.0022907446,-0.0038179078,20240202_145359_615
-0.48873404,3.4947174,9.145369,0.005192355,0.0025961774,-0.0013744468,20240202_145359_616
-0.48873404,3.5090744,9.140582,0.006414085,1.5271631E-4,-1.5271631E-4,20240202_145359_619
-0.4743771,3.4899318,9.145369,0.010079277,-0.0010690142,0.0022907446,20240202_145359_621
-0.48394838,3.4899318,9.126225,0.008857546,-0.0010690142,0.0035124752,20240202_145359_623
-0.48873404,3.4995031,9.126225,0.010079277,-0.0022907446,0.005955936,20240202_145359_625
-0.4648058,3.4899318,9.116654,0.008857546,-0.0035124752,0.0071776668,20240202_145359_627
-0.4648058,3.4803605,9.116654,0.008857546,-0.0035124752,0.0071776668,20240202_145359_629
-0.4648058,3.4947174,9.126225,0.008857546,-0.0035124752,0.0096211275,20240202_145359_632
-0.45104706,3.4803605,9.135797,0.005192355,-0.0035124752,0.0096211275,20240202_145359_633
-0.46061835,3.5042887,9.116654,0.003970624,-0.0035124752,0.0096211275,20240202_145359_635
-0.44147578,3.5090744,9.120842,0.0027488936,-0.0047342055,0.010842858,20240202_145359_639
-0.44626144,3.5090744,9.106484,3.0543262E-4,-0.005955936,0.0096211275,20240202_145359_641
-0.44626144,3.5090744,9.131011,-9.162979E-4,-0.0071776668,0.010842858,20240202_145359_643
-0.43669012,3.5090744,9.102298,-0.0033597588,-0.0071776668,0.008246681,20240202_145359_644
-0.42711884,3.51386,9.106484,-0.004581489,-0.0071776668,0.008246681,20240202_145359_646
-0.43669012,3.51386,9.111869,-0.004581489,-0.0096211275,0.0070249503,20240202_145359_648
-0.4319045,3.5090744,9.120842,-0.0033597588,-0.0047342055,0.0071776668,20240202_145359_650
-0.42711884,3.51386,9.1256275,-0.0070249503,-0.0071776668,0.004581489,20240202_145359_653
-0.4223332,3.5090744,9.120842,-0.004581489,-0.0071776668,0.004581489,20240202_145359_655
-0.4127619,3.51386,9.120842,-0.0033597588,-0.0035124752,0.0071776668,20240202_145359_657
-0.4223332,3.5042887,9.116056,-0.004581489,-0.0035124752,0.00580322,20240202_145359_659
-0.42711884,3.5186458,9.1256275,-0.004581489,-0.005955936,0.00580322,20240202_145359_662
-0.4031906,3.5330026,9.1256275,-0.0033597588,-0.0047342055,0.005955936,20240202_145359_664
-0.39361933,3.51386,9.1256275,-0.0033597588,-0.0035124752,0.0047342055,20240202_145359_666
-0.40797627,3.5330026,9.135199,-0.0033597588,-0.0071776668,0.004581489,20240202_145359_668
-0.40797627,3.5234313,9.130413,-9.162979E-4,-0.0022907446,0.0047342055,20240202_145359_670
-0.39361933,3.51386,9.120842,-9.162979E-4,-0.0035124752,0.005955936,20240202_145359_672
-0.4031906,3.51386,9.130413,-9.162979E-4,-0.005955936,0.005955936,20240202_145359_674
-0.4031906,3.51386,9.135199,0.0015271631,-0.0022907446,0.0047342055,20240202_145359_676
-0.39840496,3.5186458,9.159127,-0.0021380284,1.5271631E-4,0.005955936,20240202_145359_679
-0.40797627,3.4995031,9.14477,0.0027488936,-0.0022907446,0.0047342055,20240202_145359_681
-0.4127619,3.4995031,9.149555,0.0027488936,0.0038179078,0.0047342055,20240202_145359_683
-0.40797627,3.51386,9.154342,0.0015271631,0.0062613687,0.0035124752,20240202_145359_685
-0.39840496,3.5090744,9.14477,0.0015271631,-0.0010690142,0.0035124752,20240202_145359_688
-0.4127619,3.4947174,9.107083,0.0027488936,1.5271631E-4,0.0035124752,20240202_145359_690
-0.40797627,3.4899318,9.107083,0.005192355,0.0025961774,0.0047342055,20240202_145359_691
-0.4031906,3.4660037,9.107083,0.005192355,0.0025961774,0.0010690142,20240202_145359_693
-0.4031906,3.475575,9.116654,0.003970624,-0.0010690142,0.0022907446,20240202_145359_696
-0.41754755,3.4564323,9.131011,0.005192355,0.0013744468,0.0022907446,20240202_145359_698
-0.4127619,3.4707892,9.139984,0.003970624,0.0025961774,0.0010690142,20240202_145359_700
-0.41754755,3.4803605,9.154342,0.005192355,0.0025961774,0.0010690142,20240202_145359_702
-0.4223332,3.4851463,9.159127,0.003970624,0.0050396384,-1.5271631E-4,20240202_145359_705
-0.4223332,3.4947174,9.149555,0.0027488936,0.0013744468,-0.0013744468,20240202_145359_707
-0.42711884,3.4995031,9.139984,0.0027488936,1.5271631E-4,-0.0025961774,20240202_145359_709
-0.4319045,3.4947174,9.131011,0.0027488936,-0.0047342055,-0.0025961774,20240202_145359_711
-0.4223332,3.4947174,9.107083,3.0543262E-4,-0.0047342055,-0.0038179078,20240202_145359_713
-0.4319045,3.4899318,9.126225,-9.162979E-4,-0.0047342055,-0.005192355,20240202_145359_715
-0.4319045,3.5042887,9.131011,-9.162979E-4,-0.0035124752,-0.0025961774,20240202_145359_718
-0.43669012,3.51386,9.15494,-0.0033597588,-0.0022907446,-0.003970624,20240202_145359_720
-0.4319045,3.51386,9.163913,-0.0033597588,-0.0035124752,-0.003970624,20240202_145359_721
-0.44147578,3.528217,9.163913,-0.004581489,-0.0035124752,-0.0027488936,20240202_145359_724
-0.44626144,3.528217,9.150154,-0.00580322,-0.0022907446,-0.0027488936,20240202_145359_726
-0.4319045,3.5330026,9.126225,-0.0033597588,-0.0010690142,-0.0027488936,20240202_145359_729
-0.43669012,3.5473595,9.120842,-0.0021380284,-0.0035124752,-0.0015271631,20240202_145359_730
-0.4319045,3.5330026,9.097511,-9.162979E-4,-0.0010690142,-1.5271631E-4,20240202_145359_732
-0.44147578,3.5234313,9.078369,3.0543262E-4,-0.0022907446,-1.5271631E-4,20240202_145359_735
-0.41754755,3.528217,9.092726,0.0015271631,-0.0035124752,0.0010690142,20240202_145359_736
-0.41754755,3.5330026,9.107083,0.0015271631,-0.0022907446,-1.5271631E-4,20240202_145359_739
-0.4031906,3.5330026,9.106484,0.0015271631,1.5271631E-4,0.0010690142,20240202_145359_740
-0.40797627,3.542574,9.135199,0.0027488936,1.5271631E-4,0.0022907446,20240202_145359_743
-0.39840496,3.5330026,9.135199,3.0543262E-4,0.0013744468,0.0022907446,20240202_145359_745
-0.40797627,3.542574,9.139984,0.0015271631,0.0025961774,0.0010690142,20240202_145359_747
-0.40797627,3.542574,9.139984,0.0015271631,0.0025961774,-1.5271631E-4,20240202_145359_750
-0.39840496,3.5377884,9.106484,3.0543262E-4,0.0038179078,-1.5271631E-4,20240202_145359_752
-0.4031906,3.5186458,9.097511,-0.0021380284,0.0013744468,-0.0013744468,20240202_145359_754
-0.39361933,3.51386,9.102298,-0.0021380284,1.5271631E-4,-0.0013744468,20240202_145359_756
-0.39840496,3.51386,9.107083,-0.004581489,1.5271631E-4,-0.0015271631,20240202_145359_758
-0.38883367,3.5090744,9.120842,-0.00580322,1.5271631E-4,-3.0543262E-4,20240202_145359_761
-0.38883367,3.5234313,9.120842,-0.0070249503,-0.0010690142,-0.0027488936,20240202_145359_770
-0.39840496,3.5234313,9.135199,-0.00580322,0.0038179078,-0.0027488936,20240202_145359_771
-0.40797627,3.528217,9.135199,-0.00580322,0.0013744468,-0.003970624,20240202_145359_772
-0.39840496,3.5234313,9.154342,-0.008246681,0.0050396384,-0.0027488936,20240202_145359_772
-0.4127619,3.5234313,9.111869,-0.008246681,0.0050396384,-0.005192355,20240202_145359_773
-0.4223332,3.5090744,9.107083,-0.0070249503,0.0025961774,-0.003970624,20240202_145359_774
-0.4223332,3.4899318,9.102298,-0.00580322,0.0038179078,-0.0027488936,20240202_145359_775
-0.42711884,3.4851463,9.111869,-0.0033597588,0.0025961774,-0.0038179078,20240202_145359_778
-0.4127619,3.475575,9.116056,-0.0021380284,0.0050396384,-0.0025961774,20240202_145359_780
-0.41754755,3.4803605,9.154342,3.0543262E-4,0.0062613687,-0.0025961774,20240202_145359_782
-0.41754755,3.4803605,9.14477,3.0543262E-4,0.0062613687,-0.0013744468,20240202_145359_784
-0.43669012,3.5042887,9.139984,0.0027488936,0.0062613687,-1.5271631E-4,20240202_145359_786
-0.43669012,3.5042887,9.154342,0.0015271631,0.007483099,-0.0013744468,20240202_145359_788
-0.43669012,3.4851463,9.149555,0.0027488936,0.00870483,-0.0013744468,20240202_145359_790
-0.45583272,3.4899318,9.135797,0.003970624,0.00870483,-0.0025961774,20240202_145359_792
-0.44626144,3.4899318,9.14477,0.0027488936,0.0050396384,-0.0025961774,20240202_145359_794
-0.4648058,3.4899318,9.150154,0.005192355,0.0062613687,-1.5271631E-4,20240202_145359_796
-0.45583272,3.4707892,9.164511,0.006414085,0.0050396384,-0.0013744468,20240202_145359_799
-0.44147578,3.4660037,9.140582,0.005192355,1.5271631E-4,0.0010690142,20240202_145359_801
-0.46002015,3.475575,9.15494,0.003970624,0.0025961774,0.0010690142,20240202_145359_804
-0.45583272,3.4803605,9.173484,0.003970624,0.0038179078,0.0022907446,20240202_145359_806
-0.4743771,3.4803605,9.150154,0.003970624,1.5271631E-4,0.0022907446,20240202_145359_808
-0.45583272,3.4803605,9.15494,0.003970624,0.0025961774,0.0035124752,20240202_145359_810
-0.45583272,3.4851463,9.126225,0.006414085,0.0050396384,0.0022907446,20240202_145359_812
-0.46959144,3.4899318,9.126225,0.005192355,-0.0010690142,0.0047342055,20240202_145359_814
-0.4648058,3.4851463,9.107083,0.005192355,-0.0010690142,0.0035124752,20240202_145359_817
-0.46002015,3.475575,9.111869,0.0076358155,0.0025961774,0.0022907446,20240202_145359_818
-0.4456632,3.4660037,9.126225,0.0076358155,-0.0010690142,0.0022907446,20240202_145359_820
-0.44147578,3.4803605,9.126225,0.006414085,1.5271631E-4,0.0022907446,20240202_145359_823
-0.42711884,3.475575,9.130413,0.006414085,0.0038179078,0.0035124752,20240202_145359_825
-0.4319045,3.4899318,9.139984,0.0076358155,0.0038179078,0.0022907446,20240202_145359_827
-0.43669012,3.4947174,9.154342,0.008857546,0.0050396384,0.0022907446,20240202_145359_830
-0.4319045,3.4947174,9.130413,0.008857546,0.0062613687,0.0010690142,20240202_145359_831
-0.4127619,3.4899318,9.11127,0.008857546,0.0062613687,-1.5271631E-4,20240202_145359_833
-0.42711884,3.4899318,9.130413,0.0076358155,0.0050396384,-0.0013744468,20240202_145359_835
-0.41754755,3.4803605,9.116056,0.010079277,0.00992656,-0.0013744468,20240202_145359_837
-0.4127619,3.4803605,9.120842,0.010079277,0.007483099,-0.0025961774,20240202_145359_840
-0.41754755,3.4851463,9.135199,0.010079277,0.0050396384,-0.0025961774,20240202_145359_841
-0.4127619,3.4851463,9.139984,0.008857546,0.00870483,-0.0038179078,20240202_145359_844
-0.4223332,3.4803605,9.149555,0.010079277,0.007483099,-0.0038179078,20240202_145359_847
-0.40797627,3.475575,9.150154,0.008857546,0.0038179078,-0.0050396384,20240202_145359_848
-0.41754755,3.475575,9.126225,0.0076358155,0.011148291,-0.007483099,20240202_145359_850
-0.4127619,3.4803605,9.145369,0.008857546,0.00992656,-0.0062613687,20240202_145359_853
-0.4223332,3.4803605,9.131011,0.005192355,0.0050396384,-0.00870483,20240202_145359_854
-0.41754755,3.4899318,9.140582,0.006414085,0.00870483,-0.00992656,20240202_145359_857
-0.4319045,3.4947174,9.135797,0.0076358155,0.0062613687,-0.011148291,20240202_145359_859
-0.43669012,3.4803605,9.126225,0.0076358155,0.0050396384,-0.00992656,20240202_145359_861
-0.41754755,3.4851463,9.150154,0.0076358155,0.0050396384,-0.012370021,20240202_145359_864
-0.43669012,3.4707892,9.140582,0.006414085,0.0050396384,-0.013591751,20240202_145359_865
-0.4223332,3.475575,9.12144,0.006414085,0.0038179078,-0.013591751,20240202_145359_868
-0.4319045,3.4995031,9.131011,0.0027488936,0.0013744468,-0.013591751,20240202_145359_870
-0.44626144,3.5042887,9.131011,0.0027488936,0.0025961774,-0.014813482,20240202_145359_872
-0.46061835,3.4995031,9.135797,-7.6358154E-4,-0.0022907446,-0.014966198,20240202_145359_874
-0.4749753,3.4995031,9.131011,-0.0032070426,-0.0047342055,-0.016187929,20240202_145359_876
-0.4743771,3.4803605,9.12144,-0.0032070426,-0.0022907446,-0.013744468,20240202_145359_878
-0.46959144,3.475575,9.111869,-0.0032070426,-0.0071776668,-0.013744468,20240202_145359_881
-0.48873404,3.4851463,9.116654,-0.008093964,-0.005955936,-0.013744468,20240202_145359_883
-0.48394838,3.4660037,9.126225,-0.008093964,-0.005955936,-0.0125227375,20240202_145359_884
-0.48394838,3.475575,9.15494,-0.008093964,-0.0071776668,-0.010079277,20240202_145359_886
-0.49351966,3.4803605,9.126225,-0.009315695,-0.0071776668,-0.010079277,20240202_145359_889
-0.465404,3.5042887,9.116654,-0.008093964,-0.0047342055,-0.011301007,20240202_145359_891
-0.47976094,3.5234313,9.107083,-0.006872234,-0.008399397,-0.010079277,20240202_145359_893
-0.48454657,3.5234313,9.111869,-0.0056505036,-0.005955936,-0.010079277,20240202_145359_896
-0.48454657,3.5377884,9.111869,-0.004428773,-0.0071776668,-0.010079277,20240202_145359_897
-0.48454657,3.528217,9.097511,-0.004428773,-0.0096211275,-0.008857546,20240202_145359_900
-0.465404,3.542574,9.111869,-0.0021380284,-0.005955936,-0.0076358155,20240202_145359_902
-0.45583272,3.528217,9.111869,-0.0021380284,-0.0071776668,-0.005192355,20240202_145359_904
-0.465404,3.5377884,9.12144,-0.0033597588,-0.0071776668,-0.005192355,20240202_145359_906
-0.44147578,3.542574,9.130413,-0.0033597588,-0.008399397,-0.0015271631,20240202_145359_908
-0.44147578,3.5473595,9.135199,-0.004581489,-0.0071776668,-0.0015271631,20240202_145359_910
-0.4319045,3.542574,9.120842,-0.0033597588,-0.005955936,-3.0543262E-4,20240202_145359_913
-0.43669012,3.5473595,9.116056,-0.00580322,-0.0071776668,9.162979E-4,20240202_145359_915
-0.42711884,3.5521452,9.11127,-0.00580322,-0.008399397,9.162979E-4,20240202_145359_917
-0.4319045,3.5330026,9.130413,-0.004581489,-0.005955936,0.0021380284,20240202_145359_919
-0.4127619,3.528217,9.116056,-0.004581489,-0.0071776668,0.00580322,20240202_145359_921
-0.4031906,3.5186458,9.120842,-0.004581489,-0.0047342055,0.008246681,20240202_145359_923
-0.39840496,3.528217,9.116056,-0.0021380284,-0.0035124752,0.005955936,20240202_145359_925
-0.4031906,3.5330026,9.130413,-0.004581489,-0.0035124752,0.0070249503,20240202_145359_928
-0.39361933,3.528217,9.135199,-0.0033597588,-0.0047342055,0.0071776668,20240202_145359_930
-0.4031906,3.5234313,9.120842,-9.162979E-4,-0.0022907446,0.0071776668,20240202_145359_932
-0.4031906,3.5090744,9.1256275,3.0543262E-4,0.0013744468,0.005955936,20240202_145359_934
-0.38404804,3.5090744,9.11127,3.0543262E-4,-0.0010690142,0.005955936,20240202_145359_936
-0.39361933,3.4995031,9.120842,3.0543262E-4,0.0025961774,0.0047342055,20240202_145359_938
-0.39840496,3.5090744,9.1256275,3.0543262E-4,0.0013744468,0.0047342055,20240202_145359_941
-0.4031906,3.4899318,9.12144,3.0543262E-4,0.0013744468,0.0047342055,20240202_145359_943
-0.38883367,3.4803605,9.135199,0.0027488936,0.0025961774,0.0047342055,20240202_145359_945
-0.40797627,3.4803605,9.150154,0.003970624,0.007483099,0.0022907446,20240202_145359_947
-0.39361933,3.475575,9.149555,0.0027488936,0.0050396384,0.0022907446,20240202_145359_949
-0.4127619,3.4851463,9.150154,0.0027488936,0.0013744468,0.0010690142,20240202_145359_951
-0.39840496,3.4899318,9.139984,0.0027488936,0.007483099,0.0010690142,20240202_145359_954
-0.4127619,3.4947174,9.14477,0.003970624,0.0025961774,-0.0013744468,20240202_145359_955
-0.39840496,3.4803605,9.149555,0.003970624,-0.0010690142,-0.0025961774,20240202_145359_958
-0.4127619,3.4803605,9.140582,0.0027488936,0.0013744468,-0.0038179078,20240202_145359_961
-0.42711884,3.475575,9.140582,0.0027488936,0.0025961774,-0.0038179078,20240202_145359_962
-0.41754755,3.475575,9.145369,0.0027488936,1.5271631E-4,-0.0038179078,20240202_145359_964
-0.4319045,3.4851463,9.174082,0.003970624,-0.0010690142,-0.0038179078,20240202_145359_966
-0.43669012,3.4803605,9.135797,0.003970624,0.0025961774,-0.0050396384,20240202_145359_969
-0.42711884,3.4947174,9.145369,0.005192355,1.5271631E-4,-0.0050396384,20240202_145359_971
-0.4319045,3.4899318,9.145369,0.003970624,-0.0022907446,-0.0050396384,20240202_145359_973
-0.45104706,3.4851463,9.164511,0.003970624,1.5271631E-4,-0.0050396384,20240202_145359_975
-0.4319045,3.4851463,9.140582,0.006414085,1.5271631E-4,-0.0050396384,20240202_145359_977
-0.44147578,3.4851463,9.150154,0.0076358155,1.5271631E-4,-0.0038179078,20240202_145359_979
-0.44626144,3.4947174,9.145369,0.006414085,0.0038179078,-0.0013744468,20240202_145359_981
-0.44147578,3.5042887,9.140582,0.011301007,0.0038179078,-0.0025961774,20240202_145359_984
-0.43669012,3.5042887,9.150154,0.010079277,0.0025961774,-0.0013744468,20240202_145359_986
-0.44147578,3.5234313,9.12144,0.011301007,0.0062613687,-1.5271631E-4,20240202_145359_988
-0.45583272,3.5090744,9.107083,0.011301007,0.0025961774,-1.5271631E-4,20240202_145359_990
-0.44626144,3.5234313,9.102298,0.013744468,0.0038179078,0.0010690142,20240202_145359_992
-0.465404,3.528217,9.107083,0.013744468,0.0038179078,0.0010690142,20240202_145359_994
-0.45104706,3.5186458,9.116654,0.013744468,0.0050396384,0.0010690142,20240202_145359_996
-0.465404,3.5330026,9.116654,0.010079277,0.0013744468,0.0022907446,20240202_145359_998
-0.46061835,3.5330026,9.116654,0.010079277,1.5271631E-4,0.0010690142,20240202_145400_000
-0.465404,3.5234313,9.12144,0.0076358155,0.0038179078,0.0022907446,20240202_145400_002
-0.4749753,3.5377884,9.12144,0.006414085,-0.0010690142,0.0010690142,20240202_145400_005
-0.46061835,3.5377884,9.126225,0.003970624,-0.0047342055,0.0010690142,20240202_145400_007
-0.47018966,3.528217,9.107083,3.0543262E-4,0.0013744468,0.0010690142,20240202_145400_009
-0.47976094,3.5186458,9.107083,3.0543262E-4,-0.0022907446,0.0010690142,20240202_145400_011
-0.47976094,3.528217,9.111869,-0.0021380284,-0.005955936,0.0021380284,20240202_145400_014
-0.465404,3.51386,9.107083,-0.00580322,-0.0071776668,0.0021380284,20240202_145400_015
-0.47018966,3.5234313,9.097511,-0.00580322,-0.005955936,0.0021380284,20240202_145400_017
-0.44626144,3.5186458,9.111869,-0.0070249503,-0.005955936,0.0021380284,20240202_145400_020
-0.44147578,3.51386,9.107083,-0.008246681,-0.005955936,0.0033597588,20240202_145400_022
-0.45104706,3.51386,9.126225,-0.00580322,-0.0035124752,0.0033597588,20240202_145400_024
-0.45104706,3.5042887,9.111869,-0.009468411,-0.0047342055,0.004581489,20240202_145400_026
-0.45104706,3.5042887,9.111869,-0.008246681,-0.0022907446,0.00580322,20240202_145400_029
-0.42711884,3.4947174,9.126225,-0.00580322,-0.0010690142,0.00580322,20240202_145400_030
-0.4319045,3.4995031,9.111869,-0.0070249503,-0.0035124752,0.004581489,20240202_145400_033
-0.4223332,3.4947174,9.116654,-0.00580322,1.5271631E-4,0.0070249503,20240202_145400_035
-0.42711884,3.4995031,9.107083,-0.004581489,1.5271631E-4,0.0071776668,20240202_145400_037
-0.42711884,3.4899318,9.12144,-0.0033597588,0.0013744468,0.008399397,20240202_145400_040
-0.4223332,3.4995031,9.15494,-0.0021380284,0.0025961774,0.0071776668,20240202_145400_041
-0.4223332,3.4947174,9.159725,-0.0033597588,0.0025961774,0.008399397,20240202_145400_044
-0.40797627,3.5042887,9.173484,-9.162979E-4,0.0038179078,0.0071776668,20240202_145400_045
-0.4223332,3.5186458,9.163913,3.0543262E-4,0.0038179078,0.0096211275,20240202_145400_049
-0.41754755,3.5090744,9.159127,-0.0021380284,0.0025961774,0.008399397,20240202_145400_050
-0.41754755,3.4947174,9.164511,0.0015271631,0.0013744468,0.008399397,20240202_145400_052
-0.41754755,3.4947174,9.14477,0.0015271631,1.5271631E-4,0.0096211275,20240202_145400_054
-0.41754755,3.4899318,9.116654,0.005192355,0.0013744468,0.0071776668,20240202_145400_056
-0.40797627,3.4947174,9.130413,0.005192355,-0.0035124752,0.0071776668,20240202_145400_058
-0.39840496,3.4947174,9.120842,0.006414085,-0.0022907446,0.005955936,20240202_145400_061
-0.42711884,3.4947174,9.145369,0.0076358155,-0.0022907446,0.005955936,20240202_145400_063
-0.39840496,3.5042887,9.149555,0.0076358155,-0.0035124752,0.0047342055,20240202_145400_066
-0.40797627,3.5042887,9.154342,0.0076358155,-0.0010690142,0.0035124752,20240202_145400_067
-0.39840496,3.5090744,9.163913,0.006414085,-0.0010690142,0.0022907446,20240202_145400_070
-0.38404804,3.5042887,9.149555,0.003970624,0.0038179078,0.0010690142,20240202_145400_071
-0.39840496,3.5042887,9.139984,0.005192355,0.0025961774,0.0010690142,20240202_145400_074
-0.39361933,3.5234313,9.130413,0.006414085,0.0025961774,-1.5271631E-4,20240202_145400_076
-0.38883367,3.5042887,9.116056,0.005192355,0.0062613687,-1.5271631E-4,20240202_145400_078
-0.4031906,3.4947174,9.120842,0.005192355,0.0062613687,-0.0025961774,20240202_145400_080
-0.40797627,3.4995031,9.116654,0.006414085,0.0038179078,-0.0013744468,20240202_145400_083
-0.38883367,3.4995031,9.120842,0.006414085,0.00870483,-0.0013744468,20240202_145400_084
-0.4127619,3.5090744,9.1256275,0.0076358155,0.0062613687,-0.0025961774,20240202_145400_088
-0.41754755,3.4947174,9.131011,0.006414085,0.00992656,-0.0013744468,20240202_145400_089
-0.42711884,3.5042887,9.149555,0.006414085,0.013591751,-0.0013744468,20240202_145400_091
-0.42711884,3.5090744,9.131011,0.0076358155,0.013591751,-0.0013744468,20240202_145400_093
-0.43669012,3.5090744,9.126225,0.0076358155,0.007483099,-0.0013744468,20240202_145400_095
-0.43669012,3.5090744,9.107083,0.008857546,0.00870483,-0.0013744468,20240202_145400_097
-0.44626144,3.5186458,9.116654,0.008857546,0.00992656,-0.0013744468,20240202_145400_100
-0.44626144,3.5234313,9.102298,0.010079277,0.0062613687,-0.0025961774,20240202_145400_102
-0.45583272,3.51386,9.12144,0.008857546,0.00870483,-0.0013744468,20240202_145400_103
-0.44626144,3.5090744,9.126225,0.0076358155,0.00870483,-0.0013744468,20240202_145400_106
-0.45104706,3.5042887,9.150154,0.006414085,0.007483099,-0.0013744468,20240202_145400_108
-0.45583272,3.5042887,9.164511,0.003970624,0.00992656,-0.0025961774,20240202_145400_110
-0.47976094,3.51386,9.159725,0.003970624,0.00992656,-0.0013744468,20240202_145400_112
-0.4749753,3.51386,9.15494,0.0015271631,0.00992656,-0.0013744468,20240202_145400_115
-0.4749753,3.5234313,9.140582,0.0015271631,0.00992656,-0.0013744468,20240202_145400_116
-0.47976094,3.5186458,9.111869,-9.162979E-4,0.0062613687,-1.5271631E-4,20240202_145400_119
-0.48873404,3.5186458,9.116654,-9.162979E-4,0.0038179078,0.0010690142,20240202_145400_121
-0.48394838,3.5042887,9.102298,3.0543262E-4,0.0050396384,0.0010690142,20240202_145400_122
-0.47976094,3.51386,9.107083,-9.162979E-4,0.0025961774,0.0022907446,20240202_145400_125
-0.4749753,3.51386,9.107083,-0.0033597588,0.0025961774,0.0047342055,20240202_145400_128
-0.48933223,3.5186458,9.131011,-0.00580322,0.0025961774,0.005955936,20240202_145400_129
-0.49830532,3.528217,9.131011,-0.0070249503,0.0038179078,0.0070249503,20240202_145400_132
-0.48933223,3.5234313,9.150154,-0.008246681,1.5271631E-4,0.0070249503,20240202_145400_134
-0.47976094,3.51386,9.145369,-0.008246681,0.0013744468,0.008246681,20240202_145400_136
-0.49351966,3.5186458,9.102298,-0.0106901415,0.0050396384,0.009468411,20240202_145400_137
-0.4749753,3.5186458,9.107083,-0.011911872,-0.0010690142,0.0106901415,20240202_145400_140
-0.47916272,3.51386,9.083155,-0.011911872,-0.0035124752,0.009468411,20240202_145400_142
-0.46061835,3.5186458,9.102298,-0.011911872,0.0013744468,0.0106901415,20240202_145400_144
-0.45583272,3.4947174,9.102298,-0.011911872,-0.0022907446,0.011911872,20240202_145400_146
-0.47018966,3.4995031,9.12144,-0.011911872,-0.0022907446,0.011911872,20240202_145400_148
-0.465404,3.4947174,9.131011,-0.0143553335,1.5271631E-4,0.013133603,20240202_145400_151
-0.45583272,3.4947174,9.150154,-0.0143553335,-0.0010690142,0.0106901415,20240202_145400_153
-0.44626144,3.5186458,9.154342,-0.015577064,-0.0047342055,0.0106901415,20240202_145400_155
-0.44626144,3.4995031,9.135797,-0.015577064,0.0013744468,0.008246681,20240202_145400_157
-0.43669012,3.51386,9.12144,-0.015577064,-0.005955936,0.008246681,20240202_145400_159
-0.4223332,3.5090744,9.126225,-0.013133603,-0.005955936,0.0070249503,20240202_145400_161
-0.41754755,3.5234313,9.135199,-0.013133603,1.5271631E-4,0.0070249503,20240202_145400_164
-0.40797627,3.5042887,9.159127,-0.0106901415,-0.005955936,0.0070249503,20240202_145400_166
-0.4031906,3.5090744,9.159127,-0.009468411,-0.0071776668,0.004581489,20240202_145400_168
-0.39361933,3.5090744,9.159127,-0.0070249503,-0.0022907446,0.00580322,20240202_145400_171
-0.39840496,3.51386,9.168698,-0.0070249503,-0.0035124752,0.0033597588,20240202_145400_173
-0.3792624,3.4947174,9.163913,-0.00580322,-0.0035124752,0.0021380284,20240202_145400_175
-0.38883367,3.5042887,9.159127,-0.0033597588,-0.0022907446,0.0035124752,20240202_145400_178
-0.39361933,3.4851463,9.14477,-0.0021380284,-0.0022907446,0.0022907446,20240202_145400_179
-0.3792624,3.4995031,9.120842,-0.0021380284,-0.0035124752,0.0022907446,20240202_145400_182
-0.38404804,3.4899318,9.097511,-9.162979E-4,-0.0010690142,0.0010690142,20240202_145400_184
-0.3792624,3.475575,9.11127,-0.0021380284,-0.0022907446,0.0010690142,20240202_145400_186
-0.3792624,3.475575,9.11127,3.0543262E-4,1.5271631E-4,0.0010690142,20240202_145400_188
-0.37447673,3.4851463,9.135199,3.0543262E-4,1.5271631E-4,0.0010690142,20240202_145400_190
-0.3792624,3.475575,9.126225,3.0543262E-4,0.0025961774,0.0010690142,20240202_145400_192
-0.3696911,3.4947174,9.14477,0.0015271631,0.0062613687,0.0010690142,20240202_145400_194
-0.39361933,3.5042887,9.130413,0.0027488936,0.007483099,0.0010690142,20240202_145400_196
-0.39361933,3.51386,9.116654,0.0027488936,0.007483099,0.0010690142,20240202_145400_198
-0.38883367,3.5090744,9.116654,0.0015271631,0.00870483,0.0010690142,20240202_145400_201
-0.39361933,3.51386,9.097511,0.003970624,0.007483099,0.0010690142,20240202_145400_203
-0.40797627,3.5042887,9.073584,0.0027488936,0.007483099,-1.5271631E-4,20240202_145400_204
-0.41754755,3.5042887,9.08794,0.003970624,0.0050396384,0.0010690142,20240202_145400_207
-0.4223332,3.4995031,9.107083,0.005192355,0.0062613687,-1.5271631E-4,20240202_145400_209
-0.4127619,3.5042887,9.116654,0.005192355,0.00992656,0.0010690142,20240202_145400_211
-0.43669012,3.4995031,9.140582,0.005192355,0.007483099,-1.5271631E-4,20240202_145400_214
-0.44147578,3.5090744,9.164511,0.005192355,0.007483099,0.0010690142,20240202_145400_216
-0.44147578,3.542574,9.163913,0.003970624,0.00992656,-1.5271631E-4,20240202_145400_218
-0.43669012,3.542574,9.149555,0.003970624,0.0062613687,-1.5271631E-4,20240202_145400_219
-0.44626144,3.5473595,9.135797,0.003970624,0.0050396384,-1.5271631E-4,20240202_145400_222
-0.44626144,3.5330026,9.131011,0.005192355,0.0050396384,-1.5271631E-4,20240202_145400_224
-0.45104706,3.528217,9.131011,0.003970624,0.0025961774,-0.0013744468,20240202_145400_227
-0.44147578,3.528217,9.12144,0.003970624,-0.0010690142,-0.0013744468,20240202_145400_229
-0.45104706,3.5186458,9.164511,0.0027488936,0.0025961774,-0.0025961774,20240202_145400_230
-0.44626144,3.4947174,9.164511,0.003970624,1.5271631E-4,-0.0013744468,20240202_145400_232
-0.45583272,3.5042887,9.150154,0.0027488936,-0.0010690142,-0.0038179078,20240202_145400_235
-0.46061835,3.51386,9.131011,0.003970624,0.0025961774,-0.0025961774,20240202_145400_237
-0.45104706,3.4995031,9.131011,0.0027488936,1.5271631E-4,-0.0038179078,20240202_145400_239
-0.45583272,3.5042887,9.126225,0.0015271631,-0.0010690142,-0.0038179078,20240202_145400_241
-0.46061835,3.5042887,9.12144,-9.162979E-4,-0.0010690142,-0.0025961774,20240202_145400_243
-0.47018966,3.4851463,9.12144,3.0543262E-4,-0.0022907446,-0.0025961774,20240202_145400_245
-0.46061835,3.475575,9.102298,3.0543262E-4,-0.0035124752,-0.0013744468,20240202_145400_248
-0.46061835,3.4851463,9.111869,3.0543262E-4,-0.0010690142,-0.0013744468,20240202_145400_250
-0.465404,3.4660037,9.12144,-0.0033597588,-0.0022907446,-3.0543262E-4,20240202_145400_251
-0.47916272,3.4660037,9.126225,-9.162979E-4,-0.0035124752,-0.0013744468,20240202_145400_255
-0.4749753,3.475575,9.131011,-0.0021380284,-0.0035124752,-0.0015271631,20240202_145400_259
-0.47018966,3.4899318,9.145369,-9.162979E-4,1.5271631E-4,0.0010690142,20240202_145400_259
-0.465404,3.4899318,9.150154,-0.004581489,-0.0047342055,-3.0543262E-4,20240202_145400_260
-0.46061835,3.4851463,9.135797,-0.0021380284,-0.0035124752,0.0010690142,20240202_145400_263
-0.47018966,3.4899318,9.131011,-9.162979E-4,-0.0010690142,0.0035124752,20240202_145400_264
-0.465404,3.475575,9.131011,0.0015271631,1.5271631E-4,0.0022907446,20240202_145400_266
-0.465404,3.4899318,9.140582,0.0015271631,-0.0035124752,0.0022907446,20240202_145400_269
-0.44147578,3.5042887,9.145369,3.0543262E-4,-0.0022907446,0.0035124752,20240202_145400_271
-0.45104706,3.5042887,9.140582,0.0027488936,0.0025961774,0.005955936,20240202_145400_273
-0.45583272,3.4995031,9.131011,0.0027488936,-0.0035124752,0.0047342055,20240202_145400_275
-0.47018966,3.51386,9.15494,0.003970624,-0.0022907446,0.005955936,20240202_145400_278
-0.465404,3.5186458,9.145369,0.003970624,1.5271631E-4,0.005955936,20240202_145400_280
-0.45104706,3.5090744,9.140582,0.003970624,-0.0022907446,0.0071776668,20240202_145400_282
-0.45104706,3.5042887,9.135797,0.003970624,-0.004581489,0.0071776668,20240202_145400_284
-0.45104706,3.5090744,9.12144,0.006414085,1.5271631E-4,0.005955936,20240202_145400_286
-0.45583272,3.4995031,9.126225,0.0076358155,-0.0022907446,0.0071776668,20240202_145400_288
-0.43669012,3.4995031,9.126225,0.006414085,-0.0035124752,0.0071776668,20240202_145400_290
-0.44147578,3.4995031,9.140582,0.006414085,0.0025961774,0.0071776668,20240202_145400_293
-0.44147578,3.4995031,9.145369,0.006414085,-0.0010690142,0.0071776668,20240202_145400_295
-0.4223332,3.5090744,9.140582,0.005192355,-0.0022907446,0.005955936,20240202_145400_297
-0.4127619,3.5090744,9.12144,0.006414085,0.0038179078,0.0071776668,20240202_145400_299
-0.4031906,3.5234313,9.12144,0.006414085,1.5271631E-4,0.0047342055,20240202_145400_301
-0.39840496,3.5186458,9.116654,0.005192355,-0.0022907446,0.0047342055,20240202_145400_303
-0.38883367,3.4995031,9.116654,0.0076358155,0.0050396384,0.0047342055,20240202_145400_305
-0.4031906,3.5042887,9.116654,0.0076358155,0.0025961774,0.0022907446,20240202_145400_307
-0.38883367,3.5090744,9.126225,0.008857546,0.0013744468,0.0022907446,20240202_145400_309
-0.39361933,3.5042887,9.131011,0.010079277,0.007483099,-1.5271631E-4,20240202_145400_312
-0.39361933,3.5090744,9.126225,0.010079277,0.0062613687,-1.5271631E-4,20240202_145400_314
-0.39840496,3.5090744,9.116654,0.010079277,0.0025961774,-0.0025961774,20240202_145400_316
-0.39840496,3.5186458,9.111869,0.010079277,0.0062613687,-0.0038179078,20240202_145400_318
-0.39361933,3.5186458,9.107083,0.006414085,0.0062613687,-0.0062613687,20240202_145400_320
-0.39840496,3.5377884,9.116056,0.005192355,0.0025961774,-0.0062613687,20240202_145400_323
-0.39840496,3.5186458,9.135199,0.005192355,0.0025961774,-0.0062613687,20240202_145400_325
-0.38883367,3.51386,9.135199,0.005192355,0.0025961774,-0.007483099,20240202_145400_327
-0.39840496,3.5186458,9.12144,0.0015271631,1.5271631E-4,-0.00992656,20240202_145400_329
-0.40797627,3.5234313,9.102298,3.0543262E-4,1.5271631E-4,-0.00992656,20240202_145400_331
-0.41754755,3.528217,9.12144,-9.162979E-4,1.5271631E-4,-0.011148291,20240202_145400_333
-0.42711884,3.51386,9.12144,-0.0032070426,-0.0035124752,-0.011301007,20240202_145400_336
-0.44147578,3.5186458,9.126225,-0.008093964,-0.0022907446,-0.013744468,20240202_145400_338
-0.44147578,3.5090744,9.126225,-0.009315695,-0.0047342055,-0.011301007,20240202_145400_340
-0.45104706,3.5042887,9.12144,-0.010537425,-0.005955936,-0.0125227375,20240202_145400_341
-0.45104706,3.5186458,9.102298,-0.011759156,-0.005955936,-0.0125227375,20240202_145400_344
-0.465404,3.51386,9.092726,-0.014202617,-0.008399397,-0.0125227375,20240202_145400_346
-0.45583272,3.51386,9.092726,-0.016646078,-0.008399397,-0.013744468,20240202_145400_349
-0.46061835,3.5090744,9.08794,-0.01786781,-0.0096211275,-0.011301007,20240202_145400_351
-0.4749753,3.5186458,9.12144,-0.01786781,-0.010842858,-0.011301007,20240202_145400_353
-0.47976094,3.5186458,9.12144,-0.02031127,-0.010842858,-0.011301007,20240202_145400_355
-0.49830532,3.5042887,9.135797,-0.02031127,-0.008399397,-0.011301007,20240202_145400_357
-0.48454657,3.51386,9.111869,-0.02275473,-0.0096211275,-0.010079277,20240202_145400_360
-0.4749753,3.5090744,9.131011,-0.02031127,-0.008399397,-0.010079277,20240202_145400_362
-0.47976094,3.5042887,9.131011,-0.01786781,-0.005955936,-0.006414085,20240202_145400_363
-0.4941179,3.5042887,9.126225,-0.01786781,-0.0047342055,-0.003970624,20240202_145400_366
-0.47018966,3.4995031,9.131011,-0.019089539,-0.0071776668,-0.0027488936,20240202_145400_368
-0.47976094,3.4947174,9.12144,-0.016798794,-0.0047342055,9.162979E-4,20240202_145400_370
-0.47976094,3.4947174,9.131011,-0.018020526,-0.0022907446,0.004581489,20240202_145400_373
-0.47018966,3.4947174,9.111869,-0.0143553335,-0.0047342055,0.008246681,20240202_145400_374
-0.45583272,3.4803605,9.102298,-0.013133603,-0.0010690142,0.0106901415,20240202_145400_377
-0.46061835,3.4899318,9.131011,-0.0106901415,-0.0010690142,0.013133603,20240202_145400_379
-0.46061835,3.5042887,9.135797,-0.008246681,-0.0022907446,0.013133603,20240202_145400_381
-0.44147578,3.5234313,9.145369,-0.009468411,-0.0022907446,0.0143553335,20240202_145400_383
-0.44147578,3.5186458,9.145369,-0.008246681,-0.0010690142,0.013133603,20240202_145400_385
-0.44626144,3.528217,9.145369,-0.0070249503,1.5271631E-4,0.0143553335,20240202_145400_387
-0.44147578,3.528217,9.135797,-0.0070249503,-0.0010690142,0.013133603,20240202_145400_389
-0.4319045,3.51386,9.159725,-0.0070249503,-0.0010690142,0.011911872,20240202_145400_392
-0.43669012,3.5090744,9.159725,-0.008246681,0.0013744468,0.0106901415,20240202_145400_393
-0.42711884,3.4995031,9.164511,-0.0106901415,1.5271631E-4,0.0106901415,20240202_145400_396
-0.41754755,3.51386,9.150154,-0.0106901415,1.5271631E-4,0.009468411,20240202_145400_397
-0.4031906,3.4851463,9.131011,-0.0106901415,0.0013744468,0.0070249503,20240202_145400_400
-0.39840496,3.4899318,9.111869,-0.009468411,0.0013744468,0.008246681,20240202_145400_402
-0.38883367,3.4803605,9.12144,-0.009468411,0.0038179078,0.008246681,20240202_145400_404
-0.38883367,3.4851463,9.116654,-0.009468411,1.5271631E-4,0.008246681,20240202_145400_406
-0.37447673,3.4803605,9.116654,-0.011911872,1.5271631E-4,0.0070249503,20240202_145400_410
-0.38883367,3.4947174,9.12144,-0.009468411,0.0013744468,0.0070249503,20240202_145400_411
-0.38883367,3.5090744,9.12144,-0.0106901415,0.0013744468,0.00580322,20240202_145400_413
-0.38404804,3.4947174,9.131011,-0.009468411,0.0038179078,0.004581489,20240202_145400_415
-0.39840496,3.4851463,9.164511,-0.009468411,0.0062613687,0.0033597588,20240202_145400_417
-0.4127619,3.475575,9.169296,-0.0070249503,0.0062613687,9.162979E-4,20240202_145400_420
-0.41754755,3.4803605,9.169296,-0.00580322,0.0062613687,9.162979E-4,20240202_145400_421
-0.40797627,3.4851463,9.145369,-0.0033597588,0.00870483,-1.5271631E-4,20240202_145400_424
-0.4127619,3.4947174,9.159725,-0.0021380284,0.0062613687,-0.0013744468,20240202_145400_426
-0.41754755,3.4947174,9.140582,-9.162979E-4,0.007483099,-0.0025961774,20240202_145400_429
-0.41754755,3.4899318,9.150154,0.0015271631,0.00870483,-0.0050396384,20240202_145400_430
-0.4127619,3.4899318,9.150154,0.0015271631,0.0050396384,-0.0050396384,20240202_145400_433
-0.4319045,3.4803605,9.164511,0.0027488936,0.0050396384,-0.0062613687,20240202_145400_434
-0.4319045,3.4947174,9.15494,0.0027488936,0.0025961774,-0.007483099,20240202_145400_436
-0.4319045,3.475575,9.145369,0.003970624,0.0013744468,-0.0050396384,20240202_145400_439
-0.45583272,3.4612179,9.15494,0.006414085,1.5271631E-4,-0.007483099,20240202_145400_441
-0.45583272,3.4612179,9.150154,0.0076358155,0.0013744468,-0.007483099,20240202_145400_443
-0.45583272,3.4707892,9.140582,0.0076358155,-0.0010690142,-0.0062613687,20240202_145400_445
-0.45583272,3.4660037,9.131011,0.008857546,-0.0021380284,-0.0062613687,20240202_145400_447
-0.43669012,3.4803605,9.145369,0.0076358155,-0.0021380284,-0.0050396384,20240202_145400_449
-0.4319045,3.4899318,9.150154,0.0076358155,-0.0021380284,-0.0062613687,20240202_145400_451
-0.4319045,3.4947174,9.15494,0.0076358155,-0.0033597588,-0.0050396384,20240202_145400_454
-0.4319045,3.51386,9.150154,0.006414085,-0.0033597588,-0.0062613687,20240202_145400_456
-0.44626144,3.51386,9.150154,0.006414085,1.5271631E-4,-0.0050396384,20240202_145400_458
-0.45104706,3.5234313,9.140582,0.006414085,-0.0021380284,-0.0062613687,20240202_145400_461
-0.45583272,3.5090744,9.107083,0.006414085,-0.0010690142,-0.0062613687,20240202_145400_462
-0.44626144,3.5090744,9.131011,0.0076358155,0.0013744468,-0.0038179078,20240202_145400_465
-0.42711884,3.4995031,9.12144,0.0076358155,0.0013744468,-0.0050396384,20240202_145400_466
-0.42711884,3.5042887,9.111869,0.0076358155,0.0013744468,-0.0038179078,20240202_145400_468
-0.4223332,3.5234313,9.111869,0.0076358155,0.0050396384,-0.0013744468,20240202_145400_472
-0.4127619,3.5186458,9.135199,0.008857546,0.0050396384,-1.5271631E-4,20240202_145400_473
-0.4127619,3.5330026,9.135199,0.0076358155,0.0050396384,0.0010690142,20240202_145400_475
-0.4127619,3.542574,9.120842,0.0076358155,0.00870483,0.0010690142,20240202_145400_478
-0.4223332,3.5377884,9.097511,0.006414085,0.0062613687,0.0022907446,20240202_145400_479
-0.4319045,3.5186458,9.102298,0.006414085,0.007483099,0.0022907446,20240202_145400_481
-0.4223332,3.5234313,9.111869,0.006414085,0.00992656,0.0035124752,20240202_145400_484
-0.4319045,3.4995031,9.092726,0.003970624,0.007483099,0.0022907446,20240202_145400_486
-0.41754755,3.4995031,9.097511,0.003970624,0.00870483,0.0047342055,20240202_145400_488
-0.4127619,3.5186458,9.111869,0.003970624,0.00870483,0.0047342055,20240202_145400_490
-0.4223332,3.5234313,9.135199,0.0027488936,0.00870483,0.0047342055,20240202_145400_492
-0.4319045,3.528217,9.12144,0.0015271631,0.00870483,0.0047342055,20240202_145400_494
-0.4223332,3.5377884,9.154342,3.0543262E-4,0.011148291,0.0035124752,20240202_145400_496
-0.42711884,3.5330026,9.149555,-9.162979E-4,0.00870483,0.0047342055,20240202_145400_498
-0.43669012,3.5234313,9.126225,3.0543262E-4,0.00992656,0.0047342055,20240202_145400_501
-0.44626144,3.5042887,9.111869,-9.162979E-4,0.00870483,0.0035124752,20240202_145400_503
-0.44626144,3.5186458,9.107083,-9.162979E-4,0.0038179078,0.0035124752,20240202_145400_505
-0.45583272,3.4899318,9.116654,3.0543262E-4,0.0038179078,0.005955936,20240202_145400_507
-0.46061835,3.4995031,9.097511,3.0543262E-4,0.0038179078,0.005955936,20240202_145400_509
-0.45104706,3.4947174,9.116654,0.0015271631,0.0025961774,0.0047342055,20240202_145400_511
-0.44626144,3.4947174,9.135797,0.0027488936,0.0050396384,0.0047342055,20240202_145400_513
-0.46061835,3.4947174,9.131011,3.0543262E-4,0.0038179078,0.0035124752,20240202_145400_516
-0.4749753,3.51386,9.140582,-9.162979E-4,0.0025961774,0.0035124752,20240202_145400_518
-0.4749753,3.5090744,9.135797,0.0015271631,0.0038179078,0.0035124752,20240202_145400_521
-0.4749753,3.4947174,9.135797,3.0543262E-4,0.0038179078,0.0022907446,20240202_145400_522
-0.4749753,3.4899318,9.131011,-9.162979E-4,1.5271631E-4,0.0035124752,20240202_145400_525
-0.465404,3.4851463,9.12144,-9.162979E-4,0.0025961774,0.0022907446,20240202_145400_526
-0.465404,3.4803605,9.116654,-9.162979E-4,0.0013744468,0.0035124752,20240202_145400_529
-0.46061835,3.4707892,9.111869,-9.162979E-4,-0.0010690142,0.0035124752,20240202_145400_530
-0.46061835,3.4660037,9.140582,3.0543262E-4,0.0025961774,0.0035124752,20240202_145400_535
-0.4648058,3.4660037,9.140582,3.0543262E-4,-0.0010690142,0.0022907446,20240202_145400_537
-0.4552345,3.4660037,9.140582,-0.0021380284,-0.0035124752,0.0010690142,20240202_145400_538
-0.46959144,3.475575,9.164511,-9.162979E-4,-0.0022907446,0.0022907446,20240202_145400_540
-0.4743771,3.4851463,9.15494,-0.0021380284,-0.0022907446,0.0010690142,20240202_145400_542
-0.46061835,3.4851463,9.159725,-0.0021380284,-0.0035124752,0.0010690142,20240202_145400_544
-0.46061835,3.4899318,9.159725,-9.162979E-4,-0.0035124752,0.0010690142,20240202_145400_546
-0.45583272,3.475575,9.150154,-0.0033597588,-0.0047342055,-3.0543262E-4,20240202_145400_548
-0.42711884,3.4707892,9.14477,3.0543262E-4,-0.0035124752,-1.5271631E-4,20240202_145400_551
-0.4319045,3.475575,9.135797,3.0543262E-4,-0.0022907446,-1.5271631E-4,20240202_145400_552
-0.4319045,3.4660037,9.154342,0.0027488936,-0.0022907446,0.0010690142,20240202_145400_554
-0.43669012,3.475575,9.145369,0.0027488936,-0.0022907446,-1.5271631E-4,20240202_145400_557
-0.42711884,3.4803605,9.159127,0.003970624,-0.0010690142,0.0010690142,20240202_145400_560
-0.4319045,3.4803605,9.149555,0.005192355,0.0025961774,-0.0013744468,20240202_145400_561
-0.4127619,3.475575,9.154342,0.006414085,0.0038179078,-1.5271631E-4,20240202_145400_563
-0.4319045,3.5042887,9.154342,0.0076358155,0.0038179078,-1.5271631E-4,20240202_145400_565
-0.4223332,3.5042887,9.130413,0.0125227375,0.0062613687,-0.0013744468,20240202_145400_568
-0.4127619,3.5090744,9.130413,0.014966198,0.0062613687,-1.5271631E-4,20240202_145400_570
-0.4127619,3.4803605,9.130413,0.016187929,0.0062613687,0.0010690142,20240202_145400_573
-0.40797627,3.4803605,9.154342,0.017256944,0.00992656,0.0010690142,20240202_145400_574
-0.39361933,3.4803605,9.139984,0.019700404,0.00992656,0.0012217305,20240202_145400_577
-0.4031906,3.4899318,9.173484,0.020922136,0.012370021,0.002443461,20240202_145400_579
-0.4127619,3.4899318,9.168698,0.023365596,0.013591751,0.002443461,20240202_145400_581
-0.40797627,3.4947174,9.159127,0.022143865,0.013591751,0.002443461,20240202_145400_582
-0.40797627,3.4995031,9.149555,0.023365596,0.013591751,0.002443461,20240202_145400_585
-0.4223332,3.51386,9.139984,0.024587326,0.016035212,0.0012217305,20240202_145400_586
-0.41754755,3.5090744,9.116056,0.025809057,0.012370021,0.002443461,20240202_145400_589
-0.4223332,3.5090744,9.130413,0.025809057,0.012370021,0.002443461,20240202_145400_591
-0.42711884,3.5186458,9.1256275,0.025809057,0.013591751,0.002443461,20240202_145400_593
-0.42711884,3.5090744,9.120842,0.023365596,0.00992656,0.0036651916,20240202_145400_596
-0.43669012,3.5234313,9.130413,0.022143865,0.012370021,0.002443461,20240202_145400_597
-0.44626144,3.5234313,9.135199,0.022143865,0.011148291,0.0012217305,20240202_145400_599
-0.44147578,3.5234313,9.11127,0.018478673,0.00870483,0.002443461,20240202_145400_602
-0.48933223,3.5330026,9.107083,0.016187929,0.0062613687,0.0010690142,20240202_145400_604
-0.47976094,3.528217,9.097511,0.013744468,0.0050396384,0.0010690142,20240202_145400_606
-0.4941179,3.542574,9.073584,0.010079277,0.0025961774,-1.5271631E-4,20240202_145400_608
-0.4749753,3.5330026,9.107083,0.006414085,-0.0010690142,-1.5271631E-4,20240202_145400_610
-0.49351966,3.528217,9.092726,0.003970624,-0.0010690142,-0.0013744468,20240202_145400_612
-0.503091,3.5186458,9.107083,0.0015271631,-0.0035124752,-0.0013744468,20240202_145400_615
-0.47976094,3.528217,9.102298,-0.0021380284,-0.008399397,-0.0027488936,20240202_145400_617
-0.4989035,3.5473595,9.111869,-0.00580322,-0.005955936,-0.0015271631,20240202_145400_619
-0.48454657,3.5521452,9.111869,-0.0070249503,-0.008399397,-0.0015271631,20240202_145400_621
-0.48933223,3.5330026,9.126225,-0.009468411,-0.010842858,-0.0015271631,20240202_145400_624
-0.48933223,3.5330026,9.116654,-0.0106901415,-0.008399397,-0.0015271631,20240202_145400_626
-0.49351966,3.5186458,9.097511,-0.013133603,-0.013133603,9.162979E-4,20240202_145400_628
-0.49351966,3.4995031,9.08794,-0.011911872,-0.013133603,9.162979E-4,20240202_145400_630
-0.49351966,3.5042887,9.107083,-0.013133603,-0.013133603,0.0021380284,20240202_145400_632
-0.4743771,3.4947174,9.111869,-0.011911872,-0.013133603,0.0033597588,20240202_145400_634
-0.47018966,3.5042887,9.116654,-0.011911872,-0.013133603,0.004581489,20240202_145400_637
-0.44626144,3.51386,9.126225,-0.011911872,-0.010842858,0.0033597588,20240202_145400_638
-0.44147578,3.5186458,9.140582,-0.013133603,-0.0096211275,0.004581489,20240202_145400_641
-0.45104706,3.51386,9.140582,-0.011911872,-0.010842858,0.004581489,20240202_145400_642
-0.44626144,3.5090744,9.131011,-0.013133603,-0.0096211275,0.004581489,20240202_145400_645
-0.42711884,3.5090744,9.126225,-0.0106901415,-0.0047342055,0.004581489,20240202_145400_647
-0.4319045,3.5042887,9.131011,-0.0106901415,-0.008399397,0.0033597588,20240202_145400_649
-0.41754755,3.4947174,9.12144,-0.0106901415,-0.010842858,0.004581489,20240202_145400_651
-0.4223332,3.4803605,9.126225,-0.0106901415,-0.008399397,0.0033597588,20240202_145400_653
-0.4031906,3.5042887,9.14477,-0.0106901415,-0.0071776668,0.0021380284,20240202_145400_655
-0.39840496,3.4947174,9.149555,-0.0070249503,-0.0096211275,0.0021380284,20240202_145400_657
-0.4031906,3.4803605,9.163913,-0.008246681,-0.0071776668,-3.0543262E-4,20240202_145400_660
-0.39361933,3.4995031,9.163913,-0.00580322,-0.005955936,-0.0027488936,20240202_145400_662
-0.38883367,3.4899318,9.163913,-0.0070249503,-0.0071776668,-0.0027488936,20240202_145400_664
-0.40797627,3.4803605,9.173484,-0.00580322,-0.0071776668,-0.003970624,20240202_145400_666
-0.38883367,3.4851463,9.159127,-0.004581489,-0.0035124752,-0.005192355,20240202_145400_669
-0.38883367,3.4803605,9.154342,-9.162979E-4,-0.0035124752,-0.005192355,20240202_145400_672
-0.3792624,3.4899318,9.150154,-9.162979E-4,-0.0035124752,-0.0076358155,20240202_145400_673
-0.37447673,3.475575,9.150154,0.0015271631,-0.0010690142,-0.007483099,20240202_145400_675
-0.3792624,3.4947174,9.145369,0.003970624,-0.0022907446,-0.007483099,20240202_145400_678
-0.38883367,3.4707892,9.140582,0.0076358155,1.5271631E-4,-0.007483099,20240202_145400_679
-0.3696911,3.4851463,9.163913,0.0076358155,0.0025961774,-0.007483099,20240202_145400_681
-0.39361933,3.475575,9.150154,0.010079277,0.0062613687,-0.0062613687,20240202_145400_684
-0.4031906,3.4803605,9.135797,0.013744468,0.007483099,-0.0062613687,20240202_145400_686
-0.40797627,3.4947174,9.131011,0.014966198,0.00870483,-0.0062613687,20240202_145400_688
-0.39840496,3.4995031,9.145369,0.014966198,0.012370021,-0.0038179078,20240202_145400_690
-0.39840496,3.4947174,9.116654,0.01985312,0.012370021,-0.0036651916,20240202_145400_692
-0.39840496,3.51386,9.131011,0.022143865,0.013591751,-0.002443461,20240202_145400_694
-0.40797627,3.51386,9.107083,0.020922136,0.016035212,-0.002443461,20240202_145400_696
-0.4223332,3.5090744,9.12144,0.022143865,0.013591751,-0.0012217305,20240202_145400_698
-0.42711884,3.5377884,9.126225,0.020922136,0.012370021,-0.0012217305,20240202_145400_701
-0.44147578,3.5234313,9.126225,0.01863139,0.014813482,-0.0012217305,20240202_145400_702
-0.45583272,3.528217,9.111869,0.01863139,0.012370021,-0.0012217305,20240202_145400_705
-0.47018966,3.5234313,9.097511,0.016187929,0.007483099,-0.0013744468,20240202_145400_707
-0.46061835,3.528217,9.111869,0.013744468,0.00992656,-0.0013744468,20240202_145400_709
-0.46061835,3.5330026,9.097511,0.011301007,0.007483099,-0.0025961774,20240202_145400_712
-0.465404,3.528217,9.107083,0.008857546,0.0025961774,-0.0013744468,20240202_145400_713
-0.47976094,3.5377884,9.111869,0.0027488936,0.0013744468,-0.0025961774,20240202_145400_716
-0.47018966,3.5473595,9.083155,0.0027488936,0.0025961774,-0.0025961774,20240202_145400_718
-0.47976094,3.5569308,9.092726,-0.0021380284,-0.0022907446,-0.003970624,20240202_145400_720
-0.4941179,3.5473595,9.097511,-0.004581489,-0.0022907446,-0.003970624,20240202_145400_723
-0.4941179,3.542574,9.097511,-0.0070249503,-0.0035124752,-0.005192355,20240202_145400_724
-0.48454657,3.5330026,9.097511,-0.009315695,-0.0070249503,-0.005192355,20240202_145400_727
-0.4989035,3.5186458,9.092726,-0.010537425,-0.0071776668,-0.003970624,20240202_145400_729
-0.47976094,3.528217,9.097511,-0.011759156,-0.009468411,-0.003970624,20240202_145400_730
-0.47976094,3.5186458,9.102298,-0.012980887,-0.0106901415,-0.0027488936,20240202_145400_733
-0.47018966,3.5234313,9.102298,-0.014202617,-0.013133603,-0.0027488936,20240202_145400_735
-0.4749753,3.5234313,9.111869,-0.014202617,-0.011911872,-0.0027488936,20240202_145400_737
-0.45583272,3.5330026,9.12144,-0.014202617,-0.013133603,-0.0015271631,20240202_145400_740
-0.465404,3.5330026,9.126225,-0.014202617,-0.011911872,-3.0543262E-4,20240202_145400_741
-0.465404,3.528217,9.12144,-0.016646078,-0.0106901415,-3.0543262E-4,20240202_145400_744
-0.45104706,3.5186458,9.135797,-0.0154243475,-0.0106901415,9.162979E-4,20240202_145400_745
-0.46061835,3.5234313,9.131011,-0.0143553335,-0.0106901415,0.0021380284,20240202_145400_748
-0.45104706,3.51386,9.131011,-0.015577064,-0.009468411,0.0021380284,20240202_145400_749
-0.44147578,3.4899318,9.131011,-0.011911872,-0.008399397,0.0021380284,20240202_145400_752
-0.4319045,3.5042887,9.150154,-0.011911872,-0.009468411,0.0021380284,20240202_145400_754
-0.42711884,3.5042887,9.145369,-0.0106901415,-0.008246681,0.0033597588,20240202_145400_756
-0.4127619,3.5042887,9.145369,-0.009468411,-0.009468411,0.0033597588,20240202_145400_758
-0.4319045,3.5186458,9.140582,-0.009468411,-0.005955936,0.004581489,20240202_145400_762
-0.43669012,3.4995031,9.15494,-0.0070249503,-0.0035124752,0.0033597588,20240202_145400_762
-0.4223332,3.4947174,9.140582,-0.0070249503,-0.009468411,0.0033597588,20240202_145400_766
-0.4127619,3.4995031,9.150154,-0.0070249503,-0.0047342055,0.0033597588,20240202_145400_767
-0.4031906,3.4899318,9.15494,-0.00580322,-0.0035124752,0.00580322,20240202_145400_769
-0.4223332,3.4851463,9.131011,-0.0033597588,-0.0047342055,0.004581489,20240202_145400_771
-0.42711884,3.4803605,9.145369,-9.162979E-4,-0.0035124752,0.0047342055,20240202_145400_774
-0.4127619,3.475575,9.159725,3.0543262E-4,-0.0010690142,0.0047342055,20240202_145400_776
-0.4127619,3.4707892,9.145369,0.003970624,-0.0022907446,0.005955936,20240202_145400_778
-0.40797627,3.475575,9.135797,0.005192355,1.5271631E-4,0.0047342055,20240202_145400_780
-0.40797627,3.475575,9.126225,0.005192355,1.5271631E-4,0.005955936,20240202_145400_783
-0.4127619,3.4851463,9.135797,0.0076358155,-0.0010690142,0.005955936,20240202_145400_785
-0.39840496,3.5090744,9.149555,0.008857546,0.0025961774,0.005955936,20240202_145400_787
-0.4031906,3.4947174,9.150154,0.010079277,0.0025961774,0.005955936,20240202_145400_790
-0.4127619,3.5042887,9.15494,0.011301007,0.0038179078,0.0047342055,20240202_145400_791
-0.4127619,3.4947174,9.150154,0.011301007,0.007483099,0.0047342055,20240202_145400_793
-0.42711884,3.5042887,9.135797,0.011301007,0.00870483,0.0035124752,20240202_145400_797
-0.42711884,3.4947174,9.140582,0.011301007,0.00870483,0.0022907446,20240202_145400_797
-0.41754755,3.4947174,9.12144,0.011301007,0.011148291,0.0010690142,20240202_145400_799
-0.4319045,3.4947174,9.131011,0.011301007,0.007483099,0.0010690142,20240202_145400_801
-0.43669012,3.4995031,9.131011,0.010079277,0.00870483,0.0010690142,20240202_145400_803
-0.43669012,3.5042887,9.107083,0.010079277,0.007483099,-1.5271631E-4,20240202_145400_806
-0.43669012,3.4947174,9.111869,0.0076358155,0.0038179078,-0.0025961774,20240202_145400_808
-0.44147578,3.5090744,9.107083,0.006414085,0.0062613687,-1.5271631E-4,20240202_145400_810
-0.43669012,3.5042887,9.102298,0.003970624,0.0025961774,-0.0038179078,20240202_145400_812
-0.44147578,3.4995031,9.102298,0.003970624,-0.0010690142,-0.0050396384,20240202_145400_814
-0.44147578,3.5186458,9.107083,0.0015271631,-0.0022907446,-0.0062613687,20240202_145400_816
-0.45104706,3.5186458,9.107083,-0.0021380284,-0.0010690142,-0.0076358155,20240202_145400_818
-0.45583272,3.5186458,9.126225,-0.0033597588,-0.0035124752,-0.0076358155,20240202_145400_820
-0.45104706,3.5186458,9.126225,-0.0056505036,-0.005955936,-0.010079277,20240202_145400_823
-0.46061835,3.528217,9.126225,-0.009315695,-0.005955936,-0.011301007,20240202_145400_825
-0.46061835,3.528217,9.135797,-0.009315695,-0.005955936,-0.0125227375,20240202_145400_827
-0.465404,3.528217,9.140582,-0.011759156,-0.0096211275,-0.011301007,20240202_145400_829
-0.44147578,3.5234313,9.131011,-0.014202617,-0.008399397,-0.010079277,20240202_145400_832
-0.44626144,3.5186458,9.131011,-0.014202617,-0.0096211275,-0.010079277,20240202_145400_834
-0.45583272,3.5186458,9.140582,-0.014202617,-0.008399397,-0.011301007,20240202_145400_836
-0.46061835,3.51386,9.140582,-0.014202617,-0.008399397,-0.010079277,20240202_145400_837
-0.45583272,3.5234313,9.131011,-0.0154243475,-0.008399397,-0.0076358155,20240202_145400_840
-0.46061835,3.528217,9.140582,-0.0154243475,-0.0096211275,-0.008857546,20240202_145400_842
-0.47018966,3.5090744,9.140582,-0.014202617,-0.0047342055,-0.008857546,20240202_145400_845
-0.4749753,3.5090744,9.111869,-0.014202617,-0.0071776668,-0.006414085,20240202_145400_846
-0.46061835,3.4995031,9.116654,-0.012980887,-0.0071776668,-0.006414085,20240202_145400_848
-0.46061835,3.4947174,9.135797,-0.008246681,-0.0022907446,-0.003970624,20240202_145400_850
-0.45583272,3.5090744,9.111869,-0.008246681,-0.0047342055,-0.0027488936,20240202_145400_852
-0.43669012,3.4947174,9.12144,-0.008246681,-0.0010690142,-3.0543262E-4,20240202_145400_855
-0.45583272,3.4899318,9.150154,-0.008246681,0.0025961774,9.162979E-4,20240202_145400_858
-0.44147578,3.4899318,9.145369,-0.00580322,0.0025961774,0.0033597588,20240202_145400_859
-0.45583272,3.4995031,9.15494,-0.0033597588,0.0038179078,0.0035124752,20240202_145400_862
-0.45583272,3.4995031,9.174082,-0.0021380284,0.00870483,0.005955936,20240202_145400_863
-0.45104706,3.4803605,9.174082,3.0543262E-4,0.00870483,0.005955936,20240202_145400_865
-0.465404,3.4947174,9.145369,0.0027488936,0.00870483,0.008399397,20240202_145400_867
-0.45104706,3.4707892,9.140582,0.003970624,0.00992656,0.0096211275,20240202_145400_870
-0.44626144,3.4803605,9.140582,0.0050396384,0.00870483,0.010842858,20240202_145400_872
-0.44147578,3.4803605,9.150154,0.007483099,0.007483099,0.010842858,20240202_145400_874
-0.44147578,3.4851463,9.150154,0.007483099,0.007483099,0.010842858,20240202_145400_877
-0.44626144,3.4803605,9.150154,0.00870483,0.0062613687,0.010842858,20240202_145400_879
-0.44626144,3.4899318,9.169296,0.00992656,0.0038179078,0.010842858,20240202_145400_881
-0.44626144,3.5090744,9.150154,0.008857546,0.0038179078,0.008399397,20240202_145400_882
-0.45104706,3.5186458,9.164511,0.008857546,0.0013744468,0.008399397,20240202_145400_885
-0.45583272,3.5186458,9.140582,0.006414085,-0.0033597588,0.005955936,20240202_145400_887
-0.45104706,3.5042887,9.131011,0.003970624,-0.0022907446,0.0047342055,20240202_145400_889
-0.45104706,3.51386,9.116654,0.0027488936,-0.0035124752,0.0035124752,20240202_145400_892
-0.4319045,3.5090744,9.111869,3.0543262E-4,-0.008246681,0.0022907446,20240202_145400_894
-0.4319045,3.5090744,9.116654,-9.162979E-4,-0.0070249503,0.0022907446,20240202_145400_896
-0.4223332,3.5186458,9.111869,-0.0033597588,-0.008246681,9.162979E-4,20240202_145400_898
-0.42711884,3.5042887,9.111869,-0.004581489,-0.0070249503,9.162979E-4,20240202_145400_899
-0.41754755,3.5234313,9.102298,-0.00580322,-0.009468411,9.162979E-4,20240202_145400_902
-0.4127619,3.51386,9.116654,-0.009468411,-0.008246681,9.162979E-4,20240202_145400_904
-0.4127619,3.5330026,9.107083,-0.0106901415,-0.008246681,-3.0543262E-4,20240202_145400_906
-0.41754755,3.51386,9.083155,-0.012980887,-0.009468411,-0.0015271631,20240202_145400_909
-0.41754755,3.5234313,9.08794,-0.012980887,-0.0106901415,-0.0015271631,20240202_145400_911
-0.4223332,3.5234313,9.073584,-0.014202617,-0.009468411,-0.0015271631,20240202_145400_912
-0.4223332,3.5186458,9.092726,-0.012980887,-0.009468411,-0.0015271631,20240202_145400_915
-0.41754755,3.51386,9.097511,-0.011911872,-0.005955936,-0.0015271631,20240202_145400_917
-0.4031906,3.5234313,9.116654,-0.0143553335,-0.0047342055,-0.0015271631,20240202_145400_919
-0.40797627,3.51386,9.135797,-0.014202617,-0.0047342055,-0.0027488936,20240202_145400_922
-0.40797627,3.528217,9.140582,-0.012980887,-0.0022907446,-0.003970624,20240202_145400_924
-0.39840496,3.5330026,9.14477,-0.011911872,-0.0010690142,-0.0015271631,20240202_145400_926
-0.4031906,3.542574,9.139984,-0.0106901415,1.5271631E-4,-0.0027488936,20240202_145400_929
-0.39840496,3.5377884,9.120842,-0.0106901415,0.0013744468,-0.003970624,20240202_145400_930
-0.39361933,3.5377884,9.14477,-0.0106901415,-0.0022907446,-0.003970624,20240202_145400_933
-0.38404804,3.5234313,9.135199,-0.009468411,-0.0035124752,-0.003970624,20240202_145400_934
-0.39361933,3.5042887,9.126225,-0.009468411,1.5271631E-4,-0.005192355,20240202_145400_936
-0.38883367,3.4899318,9.140582,-0.008246681,-0.0022907446,-0.005192355,20240202_145400_938
-0.38883367,3.4947174,9.145369,-0.0106901415,-0.0035124752,-0.003970624,20240202_145400_941
-0.4031906,3.4899318,9.159725,-0.0106901415,1.5271631E-4,-0.005192355,20240202_145400_943
-0.40797627,3.4995031,9.174082,-0.0106901415,1.5271631E-4,-0.005192355,20240202_145400_945
-0.42711884,3.4947174,9.145369,-0.009468411,-0.0022907446,-0.006414085,20240202_145400_947
-0.4127619,3.4899318,9.150154,-0.009468411,0.0025961774,-0.0076358155,20240202_145400_949
-0.4319045,3.4564323,9.150154,-0.0070249503,1.5271631E-4,-0.0076358155,20240202_145400_951
-0.42711884,3.4707892,9.126225,-0.0070249503,-0.0022907446,-0.0076358155,20240202_145400_953
-0.42711884,3.4707892,9.145369,-0.00580322,1.5271631E-4,-0.008857546,20240202_145400_956
-0.4127619,3.4803605,9.140582,-0.006872234,-0.0010690142,-0.010079277,20240202_145400_958
-0.4319045,3.4516466,9.135797,-0.0056505036,-0.0035124752,-0.010079277,20240202_145400_960
-0.42711884,3.475575,9.135797,-0.004428773,1.5271631E-4,-0.011301007,20240202_145400_962
-0.45104706,3.475575,9.145369,-0.0033597588,0.0013744468,-0.010079277,20240202_145400_965
-0.46061835,3.4899318,9.164511,-0.0033597588,0.0013744468,-0.010079277,20240202_145400_967
-0.47018966,3.4899318,9.150154,-0.00580322,0.0038179078,-0.011301007,20240202_145400_969
-0.47018966,3.4995031,9.159725,-0.0021380284,0.0025961774,-0.00992656,20240202_145400_971
-0.4749753,3.4851463,9.145369,-9.162979E-4,0.0013744468,-0.00992656,20240202_145400_973
-0.47916272,3.475575,9.140582,3.0543262E-4,0.0013744468,-0.007483099,20240202_145400_976
-0.46061835,3.475575,9.126225,0.0015271631,0.0013744468,-0.0050396384,20240202_145400_977
-0.47018966,3.4803605,9.12144,0.0027488936,-0.0010690142,-0.0038179078,20240202_145400_980
-0.465404,3.4851463,9.12144,0.0027488936,-0.0010690142,-0.0013744468,20240202_145400_981
-0.46061835,3.4899318,9.145369,0.005192355,0.0013744468,-1.5271631E-4,20240202_145400_985
-0.4749753,3.5042887,9.126225,0.005192355,-0.0010690142,-1.5271631E-4,20240202_145400_986
-0.47018966,3.4899318,9.126225,0.005192355,-0.0010690142,0.0010690142,20240202_145400_989
-0.4749753,3.5042887,9.145369,0.005192355,1.5271631E-4,0.0022907446,20240202_145400_990
-0.47976094,3.5090744,9.150154,0.005192355,-0.0035124752,0.0022907446,20240202_145400_993
-0.46061835,3.51386,9.131011,0.005192355,-0.0010690142,0.0035124752,20240202_145400_995
-0.46061835,3.5090744,9.126225,0.003970624,1.5271631E-4,0.0022907446,20240202_145400_996
-0.4749753,3.4947174,9.131011,0.005192355,-0.0022907446,0.0035124752,20240202_145400_999
-0.45104706,3.5090744,9.131011,0.005192355,-0.0022907446,0.0035124752,20240202_145401_001
-0.43669012,3.5042887,9.111869,0.0027488936,-0.0022907446,0.0022907446,20240202_145401_003
-0.43669012,3.5090744,9.116654,0.0015271631,-0.0035124752,0.0010690142,20240202_145401_005
-0.4319045,3.5234313,9.12144,-9.162979E-4,-0.008246681,-3.0543262E-4,20240202_145401_007
-0.45104706,3.51386,9.116654,3.0543262E-4,-0.0022907446,-0.0013744468,20240202_145401_010
-0.43669012,3.5234313,9.126225,-0.0021380284,-0.0071776668,-0.0027488936,20240202_145401_012
-0.43669012,3.4995031,9.12144,-0.004428773,-0.0143553335,-0.003970624,20240202_145401_014
-0.44147578,3.4995031,9.102298,-0.004581489,-0.0106901415,-0.0027488936,20240202_145401_016
-0.4319045,3.51386,9.116654,-0.009315695,-0.009468411,-0.005192355,20240202_145401_018
-0.4319045,3.4995031,9.135797,-0.009315695,-0.013133603,-0.003970624,20240202_145401_021
-0.42711884,3.5042887,9.126225,-0.011759156,-0.0106901415,-0.005192355,20240202_145401_023
-0.41754755,3.4995031,9.131011,-0.012980887,-0.005955936,-0.005192355,20240202_145401_025
-0.42711884,3.5186458,9.145369,-0.012980887,-0.009468411,-0.005192355,20240202_145401_027
-0.42711884,3.4995031,9.145369,-0.014202617,-0.009468411,-0.003970624,20240202_145401_029
-0.41754755,3.5090744,9.126225,-0.012980887,-0.0035124752,-0.003970624,20240202_145401_032
-0.43669012,3.51386,9.140582,-0.0106901415,-0.00580322,-0.0027488936,20240202_145401_034
-0.45104706,3.5042887,9.131011,-0.008246681,-0.0035124752,-0.0015271631,20240202_145401_036
-0.42711884,3.5042887,9.131011,-0.0070249503,-0.0022907446,-3.0543262E-4,20240202_145401_037
-0.42711884,3.5186458,9.126225,-0.004581489,1.5271631E-4,-3.0543262E-4,20240202_145401_040
-0.44626144,3.4947174,9.135797,-0.0021380284,-0.0010690142,0.0022907446,20240202_145401_042
-0.4319045,3.4803605,9.15494,-9.162979E-4,0.0025961774,0.0035124752,20240202_145401_044
-0.44626144,3.4995031,9.150154,3.0543262E-4,0.0050396384,0.0035124752,20240202_145401_046
-0.44147578,3.5090744,9.131011,0.003970624,0.0013744468,0.0047342055,20240202_145401_048
-0.45104706,3.4995031,9.145369,0.006414085,0.0025961774,0.0071776668,20240202_145401_051
-0.4319045,3.4707892,9.145369,0.0076358155,0.007483099,0.005955936,20240202_145401_052
-0.44147578,3.4947174,9.150154,0.008857546,0.0062613687,0.0071776668,20240202_145401_054
-0.44147578,3.4995031,9.126225,0.00992656,0.0062613687,0.0096211275,20240202_145401_057
-0.45104706,3.4851463,9.140582,0.00870483,0.007483099,0.0096211275,20240202_145401_059
-0.44626144,3.4851463,9.135797,0.00992656,0.0062613687,0.012064588,20240202_145401_062
-0.45104706,3.4899318,9.140582,0.00870483,0.0062613687,0.010842858,20240202_145401_064
-0.4319045,3.4851463,9.140582,0.007483099,0.0062613687,0.012064588,20240202_145401_066
-0.43669012,3.4851463,9.126225,0.00870483,0.0062613687,0.010842858,20240202_145401_067
-0.43669012,3.4899318,9.135797,0.0076358155,0.0050396384,0.0096211275,20240202_145401_070
-0.43669012,3.4947174,9.145369,0.006414085,0.0038179078,0.008399397,20240202_145401_073
-0.4319045,3.4947174,9.12144,0.005192355,0.0025961774,0.005955936,20240202_145401_074
-0.42711884,3.4995031,9.107083,0.006414085,0.0013744468,0.0047342055,20240202_145401_077
-0.4223332,3.51386,9.116654,0.0027488936,1.5271631E-4,0.0035124752,20240202_145401_078
-0.41754755,3.4947174,9.140582,0.0027488936,-0.0021380284,0.0022907446,20240202_145401_081
-0.4223332,3.4995031,9.126225,0.0015271631,1.5271631E-4,0.0010690142,20240202_145401_083
-0.4127619,3.5042887,9.140582,3.0543262E-4,1.5271631E-4,0.0010690142,20240202_145401_085
-0.4031906,3.4995031,9.145369,-9.162979E-4,1.5271631E-4,-1.5271631E-4,20240202_145401_086
-0.4031906,3.4995031,9.126225,-0.0033597588,-0.0010690142,-0.0015271631,20240202_145401_089
-0.39361933,3.4995031,9.116654,-0.0033597588,-0.0035124752,-0.0027488936,20240202_145401_091
-0.41754755,3.5330026,9.092726,-0.00580322,-0.0047342055,-0.003970624,20240202_145401_093
-0.38883367,3.5042887,9.097511,-0.006872234,-0.0071776668,-0.006414085,20240202_145401_095
-0.39361933,3.5090744,9.102298,-0.008093964,-0.008246681,-0.0076358155,20240202_145401_097
-0.40797627,3.51386,9.107083,-0.010537425,-0.0106901415,-0.0076358155,20240202_145401_099
-0.4127619,3.5377884,9.116654,-0.012980887,-0.011911872,-0.008857546,20240202_145401_101
-0.4031906,3.5234313,9.135797,-0.014202617,-0.011911872,-0.011301007,20240202_145401_104
-0.4031906,3.528217,9.149555,-0.0154243475,-0.011911872,-0.0125227375,20240202_145401_106
-0.40797627,3.5377884,9.135797,-0.01786781,-0.011911872,-0.0125227375,20240202_145401_108
-0.39840496,3.542574,9.149555,-0.01786781,-0.0106901415,-0.013744468,20240202_145401_111
-0.4031906,3.5186458,9.140582,-0.019089539,-0.013133603,-0.013744468,20240202_145401_112
-0.4031906,3.5186458,9.111869,-0.01786781,-0.011911872,-0.013744468,20240202_145401_114
-0.4127619,3.5090744,9.111869,-0.01786781,-0.0096211275,-0.0125227375,20240202_145401_118
-0.42711884,3.5186458,9.12144,-0.01786781,-0.011911872,-0.011301007,20240202_145401_119
-0.42711884,3.4995031,9.135797,-0.01786781,-0.0071776668,-0.010079277,20240202_145401_121
-0.43669012,3.4995031,9.126225,-0.016646078,-0.005955936,-0.008857546,20240202_145401_124
-0.4319045,3.4947174,9.15494,-0.0154243475,-0.005955936,-0.0076358155,20240202_145401_125
-0.44147578,3.4899318,9.145369,-0.0154243475,-0.0035124752,-0.005192355,20240202_145401_128
-0.45104706,3.4947174,9.126225,-0.011911872,1.5271631E-4,-0.0027488936,20240202_145401_129
-0.44147578,3.4899318,9.12144,-0.0106901415,-0.0010690142,-0.0015271631,20240202_145401_132
-0.46061835,3.4851463,9.150154,-0.008246681,1.5271631E-4,-3.0543262E-4,20240202_145401_134
-0.45104706,3.4803605,9.135797,-0.008246681,0.0013744468,0.0021380284,20240202_145401_137
-0.46061835,3.475575,9.145369,-0.00580322,0.0038179078,0.0033597588,20240202_145401_138
-0.45104706,3.475575,9.140582,-0.0033597588,0.0025961774,0.0047342055,20240202_145401_141
-0.465404,3.4707892,9.145369,-9.162979E-4,0.0038179078,0.005955936,20240202_145401_142
-0.47018966,3.4803605,9.169296,3.0543262E-4,0.0038179078,0.005955936,20240202_145401_145
-0.465404,3.475575,9.164511,0.0027488936,0.0025961774,0.0071776668,20240202_145401_147
-0.4749753,3.4851463,9.164511,0.003970624,0.0013744468,0.0071776668,20240202_145401_149
-0.47018966,3.4707892,9.164511,0.005192355,-9.162979E-4,0.0071776668,20240202_145401_151
-0.4749753,3.4660037,9.15494,0.0076358155,1.5271631E-4,0.0071776668,20240202_145401_153
-0.465404,3.4707892,9.140582,0.0076358155,1.5271631E-4,0.0071776668,20240202_145401_155
-0.45583272,3.4612179,9.164511,0.006414085,-9.162979E-4,0.005955936,20240202_145401_157
-0.45583272,3.4516466,9.150154,0.006414085,-0.0021380284,0.005955936,20240202_145401_160
-0.44626144,3.4564323,9.15494,0.0076358155,-9.162979E-4,0.005955936,20240202_145401_162
-0.44147578,3.4707892,9.174082,0.005192355,-0.0021380284,0.0047342055,20240202_145401_163
-0.4319045,3.4899318,9.15494,0.005192355,0.0025961774,0.0047342055,20240202_145401_166
-0.4319045,3.4803605,9.131011,0.003970624,0.0013744468,0.0047342055,20240202_145401_168
-0.41754755,3.4803605,9.116654,0.005192355,-0.0021380284,0.0022907446,20240202_145401_170
-0.41754755,3.475575,9.111869,0.005192355,-0.0021380284,0.0022907446,20240202_145401_173
-0.4127619,3.4851463,9.116654,0.003970624,-0.0033597588,0.0010690142,20240202_145401_175
-0.39840496,3.4899318,9.116654,0.0027488936,-0.0033597588,0.0022907446,20240202_145401_177
-0.40797627,3.4899318,9.111869,0.0015271631,-0.0021380284,-1.5271631E-4,20240202_145401_179
-0.41754755,3.4947174,9.126225,3.0543262E-4,-0.004581489,-1.5271631E-4,20240202_145401_181
-0.4223332,3.51386,9.107083,0.0015271631,-0.0010690142,-1.5271631E-4,20240202_145401_184
-0.4127619,3.5042887,9.111869,3.0543262E-4,-0.0010690142,0.0010690142,20240202_145401_185
-0.4127619,3.51386,9.135797,3.0543262E-4,-0.0021380284,-1.5271631E-4,20240202_145401_188
-0.4031906,3.5186458,9.107083,3.0543262E-4,0.0013744468,-1.5271631E-4,20240202_145401_190
-0.4031906,3.528217,9.12144,3.0543262E-4,-0.0021380284,-1.5271631E-4,20240202_145401_192
-0.39840496,3.5377884,9.111869,-9.162979E-4,-0.0010690142,-0.0013744468,20240202_145401_194
-0.40797627,3.5330026,9.126225,3.0543262E-4,0.0013744468,-1.5271631E-4,20240202_145401_196
-0.41754755,3.542574,9.102298,-9.162979E-4,0.0013744468,-1.5271631E-4,20240202_145401_198
-0.38883367,3.5330026,9.12144,-0.0033597588,-0.0022907446,9.162979E-4,20240202_145401_200
-0.4127619,3.528217,9.140582,-0.004581489,1.5271631E-4,-3.0543262E-4,20240202_145401_203
-0.4223332,3.5377884,9.131011,-0.00580322,0.0025961774,9.162979E-4,20240202_145401_205
-0.4319045,3.542574,9.126225,-0.0070249503,-0.0010690142,9.162979E-4,20240202_145401_207
-0.4319045,3.5330026,9.126225,-0.008246681,0.0013744468,9.162979E-4,20240202_145401_209
-0.4127619,3.5090744,9.126225,-0.0070249503,0.0050396384,9.162979E-4,20240202_145401_211
-0.42711884,3.5090744,9.111869,-0.00580322,0.0013744468,0.0021380284,20240202_145401_213
-0.42711884,3.5042887,9.107083,-0.0070249503,0.0013744468,0.0033597588,20240202_145401_216
-0.4319045,3.5186458,9.102298,-0.004581489,0.0025961774,0.0021380284,20240202_145401_218
-0.4223332,3.5186458,9.107083,-0.00580322,1.5271631E-4,0.004581489,20240202_145401_221
-0.40797627,3.5090744,9.116654,-0.004581489,1.5271631E-4,0.005955936,20240202_145401_222
-0.4319045,3.4947174,9.140582,-0.00580322,0.0050396384,0.0047342055,20240202_145401_224
-0.44626144,3.4947174,9.150154,-0.004581489,0.0025961774,0.0047342055,20240202_145401_226
-0.4319045,3.4803605,9.145369,-0.004581489,0.0050396384,0.0047342055,20240202_145401_229
-0.4319045,3.4899318,9.15494,-0.0033597588,0.00992656,0.005955936,20240202_145401_231
-0.44626144,3.4851463,9.140582,-0.0033597588,0.007483099,0.005955936,20240202_145401_233
-0.44626144,3.475575,9.145369,-0.0021380284,0.0038179078,0.005955936,20240202_145401_234
-0.45583272,3.4612179,9.135797,3.0543262E-4,0.00992656,0.005955936,20240202_145401_238
-0.465404,3.4660037,9.131011,0.0015271631,0.00992656,0.0035124752,20240202_145401_239
-0.45104706,3.4612179,9.150154,0.0015271631,0.0013744468,0.0047342055,20240202_145401_241
-0.43669012,3.4612179,9.159725,0.0027488936,0.00870483,0.0035124752,20240202_145401_243
-0.44147578,3.4516466,9.178867,0.0027488936,0.00870483,0.0022907446,20240202_145401_246
-0.45104706,3.4612179,9.188439,0.003970624,0.0038179078,0.0010690142,20240202_145401_248
-0.45104706,3.4564323,9.183653,0.006414085,0.007483099,0.0010690142,20240202_145401_249
-0.46061835,3.4612179,9.164511,0.0076358155,0.00870483,-1.5271631E-4,20240202_145401_252
-0.42711884,3.4420755,9.150154,0.0076358155,1.5271631E-4,-0.0025961774,20240202_145401_254
-0.43669012,3.446861,9.135797,0.010079277,0.0025961774,-0.0025961774,20240202_145401_256
-0.41754755,3.4516466,9.140582,0.010079277,0.0013744468,-0.0062613687,20240202_145401_258
-0.4223332,3.446861,9.145369,0.011301007,-0.0010690142,-0.0050396384,20240202_145401_261
-0.4127619,3.4516466,9.145369,0.0125227375,-0.0010690142,-0.007483099,20240202_145401_262
-0.39361933,3.4516466,9.164511,0.0125227375,0.0025961774,-0.00870483,20240202_145401_265
-0.4223332,3.4612179,9.15494,0.011301007,0.0013744468,-0.00992656,20240202_145401_267
-0.40797627,3.4851463,9.164511,0.010079277,0.0025961774,-0.012370021,20240202_145401_269
-0.41754755,3.475575,9.15494,0.010079277,0.0050396384,-0.012370021,20240202_145401_272
-0.40797627,3.4803605,9.145369,0.008857546,0.0038179078,-0.014813482,20240202_145401_273
-0.4223332,3.4851463,9.135797,0.008857546,0.0025961774,-0.016035212,20240202_145401_276
-0.4127619,3.475575,9.097511,0.008857546,0.0025961774,-0.016035212,20240202_145401_278
-0.4031906,3.475575,9.083155,0.008857546,0.0013744468,-0.017256944,20240202_145401_280
-0.40797627,3.4947174,9.12144,0.0076358155,-0.0010690142,-0.017256944,20240202_145401_282
-0.4127619,3.5090744,9.131011,0.008857546,0.0050396384,-0.019700404,20240202_145401_284
-0.4031906,3.5042887,9.140582,0.010079277,1.5271631E-4,-0.018478673,20240202_145401_286
-0.4127619,3.51386,9.149555,0.0076358155,0.0025961774,-0.019700404,20240202_145401_289
-0.43669012,3.5186458,9.135797,0.0065668016,0.0013744468,-0.019700404,20240202_145401_290
-0.42711884,3.5042887,9.12144,0.0065668016,1.5271631E-4,-0.019700404,20240202_145401_293
-0.44626144,3.5186458,9.135797,0.0053450707,-0.0010690142,-0.019700404,20240202_145401_296
-0.45583272,3.528217,9.131011,0.0076358155,0.0013744468,-0.018478673,20240202_145401_297
-0.44626144,3.5090744,9.107083,0.0053450707,-0.0022907446,-0.017256944,20240202_145401_299
-0.45104706,3.5090744,9.102298,0.0041233404,-0.0035124752,-0.017256944,20240202_145401_301
-0.46061835,3.5234313,9.116654,0.0053450707,-0.0022907446,-0.016035212,20240202_145401_305
-0.465404,3.5186458,9.126225,0.005192355,-0.0035124752,-0.014813482,20240202_145401_306
-0.47976094,3.5090744,9.15494,0.0027488936,-0.0035124752,-0.013591751,20240202_145401_307
-0.465404,3.5186458,9.140582,0.0015271631,-0.0022907446,-0.012370021,20240202_145401_309
-0.48933223,3.5090744,9.15494,3.0543262E-4,-0.0010690142,-0.00992656,20240202_145401_312
-0.48454657,3.5186458,9.150154,0.0015271631,-0.0022907446,-0.00870483,20240202_145401_314
-0.49830532,3.4995031,9.116654,0.0015271631,-0.0022907446,-0.007483099,20240202_145401_316
-0.4989035,3.5186458,9.102298,0.0015271631,-0.0022907446,-0.007483099,20240202_145401_318
-0.49351966,3.4947174,9.097511,-9.162979E-4,-0.0022907446,-0.0038179078,20240202_145401_320
-0.49351966,3.4803605,9.111869,0.0015271631,-0.0035124752,-1.5271631E-4,20240202_145401_322
-0.49830532,3.4899318,9.08794,-0.0033597588,-0.0022907446,0.0021380284,20240202_145401_324
-0.50787663,3.4947174,9.116654,-0.0021380284,-0.0022907446,0.0035124752,20240202_145401_327
-0.50787663,3.4899318,9.126225,-0.0033597588,-0.0022907446,0.008399397,20240202_145401_329
-0.50787663,3.4899318,9.12144,-0.0033597588,0.0025961774,0.0096211275,20240202_145401_331
-0.503091,3.4947174,9.126225,-0.004581489,0.0038179078,0.013286319,20240202_145401_333
-0.48454657,3.4995031,9.116654,-0.0021380284,0.0013744468,0.01450805,20240202_145401_336
-0.48933223,3.4995031,9.111869,-0.0033597588,0.0025961774,0.01695151,20240202_145401_338
-0.48933223,3.5042887,9.092726,-0.0035124752,0.0050396384,0.01817324,20240202_145401_340
-0.48933223,3.5090744,9.097511,-0.0021380284,-0.0022907446,0.019394971,20240202_145401_342
-0.47018966,3.5090744,9.102298,1.5271631E-4,1.5271631E-4,0.01817324,20240202_145401_344
-0.45583272,3.5186458,9.107083,-0.0010690142,-0.0022907446,0.020616703,20240202_145401_346
-0.44626144,3.4995031,9.131011,-0.0021380284,-0.0010690142,0.019394971,20240202_145401_349
-0.44147578,3.5042887,9.140582,-0.004581489,-0.0035124752,0.01817324,20240202_145401_350
-0.44626144,3.5042887,9.164511,-0.00580322,-0.0035124752,0.01817324,20240202_145401_352
-0.44626144,3.4947174,9.15494,-0.0070249503,-0.0047342055,0.015577064,20240202_145401_355
-0.44147578,3.5042887,9.169296,-0.009468411,-0.0021380284,0.013133603,20240202_145401_357
-0.44147578,3.4947174,9.145369,-0.0106901415,-0.0070249503,0.0106901415,20240202_145401_360
-0.43669012,3.4899318,9.12144,-0.009468411,-0.009468411,0.0106901415,20240202_145401_362
-0.40797627,3.4995031,9.12144,-0.011911872,-0.0106901415,0.008246681,20240202_145401_364
-0.39840496,3.4851463,9.12144,-0.013133603,-0.011911872,0.00580322,20240202_145401_366
-0.4127619,3.4851463,9.111869,-0.015577064,-0.0143553335,0.00580322,20240202_145401_369
-0.39361933,3.4803605,9.140582,-0.01786781,-0.0143553335,0.0033597588,20240202_145401_370
-0.39840496,3.4851463,9.150154,-0.016646078,-0.016798794,9.162979E-4,20240202_145401_372
-0.39361933,3.4995031,9.164511,-0.01786781,-0.015577064,9.162979E-4,20240202_145401_375
-0.40797627,3.4995031,9.150154,-0.01786781,-0.015577064,-0.0015271631,20240202_145401_378
-0.39840496,3.4899318,9.15494,-0.016646078,-0.0106901415,-0.0015271631,20240202_145401_379
-0.40797627,3.475575,9.135797,-0.0154243475,-0.013133603,-0.0027488936,20240202_145401_381
-0.39840496,3.4851463,9.145369,-0.014202617,-0.011911872,-0.0015271631,20240202_145401_383
-0.39361933,3.4899318,9.135797,-0.011759156,-0.009468411,-0.0015271631,20240202_145401_385
-0.38883367,3.4803605,9.140582,-0.008246681,-0.0070249503,-0.0015271631,20240202_145401_388
-0.39361933,3.4803605,9.15494,-0.0033597588,-0.00580322,-3.0543262E-4,20240202_145401_389
-0.39840496,3.4707892,9.145369,-9.162979E-4,-0.0021380284,-1.5271631E-4,20240202_145401_392
-0.39361933,3.4803605,9.150154,0.0027488936,-9.162979E-4,0.0010690142,20240202_145401_393
-0.4031906,3.4803605,9.140582,0.006414085,3.0543262E-4,-1.5271631E-4,20240202_145401_396
-0.39840496,3.4660037,9.15494,0.010079277,0.0050396384,0.0010690142,20240202_145401_398
-0.4031906,3.4707892,9.174082,0.011301007,0.0050396384,-1.5271631E-4,20240202_145401_400
-0.39361933,3.4899318,9.169296,0.013744468,0.0050396384,0.0010690142,20240202_145401_401
-0.40797627,3.4660037,9.159725,0.016187929,0.00870483,-0.0013744468,20240202_145401_404
-0.39840496,3.4803605,9.174082,0.01863139,0.007483099,-0.0025961774,20240202_145401_406
-0.40797627,3.4899318,9.174082,0.01740966,0.007483099,-0.0025961774,20240202_145401_409
-0.4031906,3.4995031,9.140582,0.01863139,0.011148291,-0.0025961774,20240202_145401_411
-0.41754755,3.475575,9.15494,0.01740966,0.00870483,-0.0038179078,20240202_145401_413
-0.41754755,3.4851463,9.164511,0.01740966,0.007483099,-0.0025961774,20240202_145401_415
-0.43669012,3.4803605,9.159725,0.01863139,0.0062613687,-0.0038179078,20240202_145401_417
-0.42711884,3.4851463,9.159725,0.01863139,0.0050396384,-0.0038179078,20240202_145401_419
-0.43669012,3.4947174,9.140582,0.01740966,0.0062613687,-0.0025961774,20240202_145401_422
-0.43669012,3.4899318,9.140582,0.016187929,0.0050396384,-0.0025961774,20240202_145401_424
-0.43669012,3.4899318,9.102298,0.014966198,0.0050396384,-0.0025961774,20240202_145401_426
-0.43669012,3.4947174,9.092726,0.014966198,0.0038179078,-0.0013744468,20240202_145401_429
-0.43669012,3.51386,9.126225,0.014966198,0.0025961774,-1.5271631E-4,20240202_145401_432
-0.44147578,3.5186458,9.111869,0.013744468,0.0013744468,-1.5271631E-4,20240202_145401_433
-0.4319045,3.5234313,9.107083,0.013744468,0.0050396384,-1.5271631E-4,20240202_145401_434
-0.43669012,3.5377884,9.126225,0.011301007,0.0038179078,-0.0013744468,20240202_145401_437
-0.44626144,3.542574,9.116654,0.011301007,0.0038179078,0.0010690142,20240202_145401_438
-0.4319045,3.542574,9.092726,0.008857546,0.0062613687,-1.5271631E-4,20240202_145401_441
-0.44147578,3.542574,9.092726,0.0076358155,0.0025961774,0.0022907446,20240202_145401_443
-0.44147578,3.542574,9.107083,0.005192355,0.0025961774,0.0022907446,20240202_145401_445
-0.45104706,3.5473595,9.107083,0.0027488936,0.0050396384,0.0035124752,20240202_145401_447
-0.44147578,3.5617166,9.107083,3.0543262E-4,0.0025961774,0.0047342055,20240202_145401_449
-0.44626144,3.5617166,9.107083,3.0543262E-4,0.0025961774,0.005955936,20240202_145401_451
-0.4319045,3.5569308,9.097511,-0.0021380284,0.0025961774,0.005955936,20240202_145401_453
-0.465404,3.542574,9.08794,-0.0021380284,1.5271631E-4,0.005955936,20240202_145401_456
-0.44147578,3.5521452,9.092726,-0.004581489,1.5271631E-4,0.0071776668,20240202_145401_458
-0.45104706,3.5521452,9.083155,-0.0070249503,-0.0010690142,0.00580322,20240202_145401_461
-0.4319045,3.542574,9.102298,-0.0070249503,-0.0022907446,0.0070249503,20240202_145401_462
-0.44147578,3.5330026,9.107083,-0.008246681,-0.0047342055,0.0070249503,20240202_145401_464
-0.44626144,3.5234313,9.116654,-0.0106901415,-0.0022907446,0.0070249503,20240202_145401_466
-0.44147578,3.528217,9.12144,-0.0106901415,-0.0047342055,0.00580322,20240202_145401_469
-0.43669012,3.51386,9.131011,-0.011911872,-0.005955936,0.004581489,20240202_145401_470
-0.4223332,3.5042887,9.12144,-0.0143553335,-0.0022907446,0.00580322,20240202_145401_473
-0.41754755,3.4947174,9.135797,-0.015577064,-0.005955936,0.004581489,20240202_145401_474
-0.4223332,3.4899318,9.140582,-0.0143553335,-0.005955936,0.0033597588,20240202_145401_478
-0.4319045,3.4803605,9.126225,-0.015577064,-0.0035124752,0.0021380284,20240202_145401_479
-0.4223332,3.4564323,9.131011,-0.016798794,-0.0047342055,9.162979E-4,20240202_145401_482
-0.42711884,3.4612179,9.140582,-0.013133603,-0.0035124752,9.162979E-4,20240202_145401_485
-0.4223332,3.4660037,9.140582,-0.011911872,-0.0022907446,-3.0543262E-4,20240202_145401_485
-0.4223332,3.4612179,9.145369,-0.008246681,-0.0010690142,9.162979E-4,20240202_145401_489
-0.42711884,3.4660037,9.159725,-0.0070249503,-0.0022907446,9.162979E-4,20240202_145401_490
-0.40797627,3.4564323,9.174082,-0.00580322,1.5271631E-4,9.162979E-4,20240202_145401_493
-0.41754755,3.4660037,9.15494,-0.0021380284,0.0025961774,0.0010690142,20240202_145401_495
-0.39840496,3.4660037,9.169296,3.0543262E-4,0.0038179078,-1.5271631E-4,20240202_145401_496
-0.39840496,3.4612179,9.169296,0.0015271631,0.0013744468,0.0010690142,20240202_145401_498
-0.39361933,3.4612179,9.169296,0.005192355,0.007483099,-1.5271631E-4,20240202_145401_501
-0.40797627,3.4564323,9.183653,0.008857546,0.0050396384,0.0010690142,20240202_145401_503
-0.4127619,3.4707892,9.169296,0.0125227375,0.0050396384,-1.5271631E-4,20240202_145401_505
-0.38883367,3.4660037,9.174082,0.013744468,0.012370021,-0.0013744468,20240202_145401_507
-0.41754755,3.4516466,9.150154,0.01863139,0.00870483,-1.5271631E-4,20240202_145401_509
-0.40797627,3.475575,9.159725,0.020922136,0.00870483,-0.0,20240202_145401_512
-0.4031906,3.4947174,9.173484,0.02107485,0.012370021,-0.002443461,20240202_145401_514
-0.41754755,3.4803605,9.15494,0.022296581,0.00992656,-0.002443461,20240202_145401_516
-0.4223332,3.4995031,9.145369,0.023518313,0.00870483,-0.0036651916,20240202_145401_519
-0.41754755,3.4803605,9.145369,0.023365596,0.012370021,-0.0036651916,20240202_145401_520
-0.4319045,3.4947174,9.126225,0.022296581,0.011148291,-0.0061086523,20240202_145401_523
-0.4223332,3.4947174,9.126225,0.02107485,0.00870483,-0.0061086523,20240202_145401_524
-0.41754755,3.4899318,9.131011,0.02107485,0.011148291,-0.0061086523,20240202_145401_526
-0.4319045,3.5042887,9.126225,0.01985312,0.012370021,-0.0061086523,20240202_145401_530
-0.43669012,3.4995031,9.145369,0.016187929,0.00870483,-0.007483099,20240202_145401_531
-0.43669012,3.5090744,9.111869,0.013744468,0.012370021,-0.00870483,20240202_145401_534
-0.44626144,3.5090744,9.111869,0.011301007,0.012370021,-0.00870483,20240202_145401_535
-0.45104706,3.51386,9.12144,0.008857546,0.00992656,-0.00992656,20240202_145401_538
-0.44147578,3.51386,9.107083,0.0076358155,0.011148291,-0.00992656,20240202_145401_540
-0.44147578,3.5042887,9.111869,0.0076358155,0.014813482,-0.00870483,20240202_145401_542
-0.44626144,3.528217,9.126225,0.005192355,0.00992656,-0.00870483,20240202_145401_545
-0.4749753,3.5330026,9.111869,0.003970624,0.007483099,-0.00870483,20240202_145401_546
-0.465404,3.51386,9.107083,0.0015271631,0.011148291,-0.007483099,20240202_145401_549
-0.4749753,3.5234313,9.097511,3.0543262E-4,0.00870483,-0.00870483,20240202_145401_550
-0.48454657,3.5330026,9.12144,-9.162979E-4,0.0050396384,-0.007483099,20240202_145401_552
-0.4989035,3.5330026,9.111869,-0.0021380284,0.007483099,-0.0062613687,20240202_145401_554
-0.50368917,3.528217,9.111869,-0.004581489,0.0038179078,-0.003970624,20240202_145401_556
-0.4989035,3.5186458,9.111869,-0.004581489,1.5271631E-4,-0.0027488936,20240202_145401_559
-0.51266223,3.5090744,9.102298,-0.0070249503,0.0025961774,-3.0543262E-4,20240202_145401_562
-0.4941179,3.528217,9.126225,-0.0070249503,-0.0033597588,0.0033597588,20240202_145401_564
-0.4941179,3.5186458,9.116654,-0.009468411,-0.004581489,0.004581489,20240202_145401_566
-0.50368917,3.5234313,9.126225,-0.0106901415,-0.0010690142,0.008246681,20240202_145401_568
-0.48454657,3.5186458,9.126225,-0.013133603,-0.004581489,0.009468411,20240202_145401_570
-0.5084748,3.5234313,9.126225,-0.013133603,-0.0033597588,0.0106901415,20240202_145401_572
-0.48933223,3.5234313,9.126225,-0.013133603,1.5271631E-4,0.013133603,20240202_145401_574
-0.47976094,3.5330026,9.116654,-0.011911872,-0.004581489,0.013133603,20240202_145401_576
-0.47976094,3.5186458,9.092726,-0.011911872,-0.004581489,0.015577064,20240202_145401_579
-0.465404,3.5090744,9.102298,-0.0143553335,-0.0033597588,0.0143553335,20240202_145401_581
-0.465404,3.5234313,9.107083,-0.0106901415,-0.0033597588,0.016798794,20240202_145401_583
-0.45104706,3.5042887,9.135797,-0.009468411,-0.0033597588,0.016798794,20240202_145401_585
-0.45583272,3.4899318,9.131011,-0.0106901415,1.5271631E-4,0.019242255,20240202_145401_586
-0.44147578,3.4995031,9.116654,-0.0106901415,0.0013744468,0.016798794,20240202_145401_590
-0.4319045,3.4899318,9.145369,-0.0106901415,0.0013744468,0.018020526,20240202_145401_591
-0.4319045,3.4851463,9.140582,-0.009468411,0.0062613687,0.019394971,20240202_145401_593
-0.4223332,3.4899318,9.135797,-0.008246681,0.007483099,0.019394971,20240202_145401_596
-0.40797627,3.4660037,9.111869,-0.009468411,0.0050396384,0.019242255,20240202_145401_597
-0.4127619,3.4660037,9.126225,-0.00580322,0.0050396384,0.01817324,20240202_145401_600
-0.4127619,3.475575,9.107083,-0.0047342055,0.0062613687,0.020616703,20240202_145401_602
-0.39840496,3.4660037,9.126225,-0.0022907446,0.00870483,0.019394971,20240202_145401_604
-0.3792624,3.4803605,9.135797,0.0013744468,0.00870483,0.01695151,20240202_145401_606
-0.38404804,3.4612179,9.159725,1.5271631E-4,0.00992656,0.01572978,20240202_145401_608
-0.3792624,3.4947174,9.169296,0.0025961774,0.013591751,0.01450805,20240202_145401_610
-0.38404804,3.4947174,9.178867,0.0025961774,0.013591751,0.012064588,20240202_145401_613
-0.38883367,3.4851463,9.183653,0.003970624,0.00992656,0.010842858,20240202_145401_615
-0.39361933,3.4899318,9.169296,0.005192355,0.012370021,0.008399397,20240202_145401_617
-0.38404804,3.4947174,9.164511,0.0076358155,0.00992656,0.005955936,20240202_145401_618
-0.38404804,3.4660037,9.145369,0.0076358155,0.007483099,0.0022907446,20240202_145401_621
-0.39361933,3.4660037,9.140582,0.008857546,0.0062613687,-1.5271631E-4,20240202_145401_623
-0.4031906,3.4660037,9.135797,0.008857546,0.0038179078,-0.0013744468,20240202_145401_625
-0.39840496,3.4660037,9.150154,0.008857546,0.0013744468,-0.0038179078,20240202_145401_628
-0.39361933,3.475575,9.169296,0.008857546,0.0050396384,-0.0062613687,20240202_145401_629
-0.39840496,3.475575,9.178867,0.008857546,0.0025961774,-0.007483099,20240202_145401_632
-0.39361933,3.4803605,9.178867,0.0076358155,0.0025961774,-0.00870483,20240202_145401_634
-0.39361933,3.475575,9.159725,0.0076358155,0.0050396384,-0.011148291,20240202_145401_637
-0.4127619,3.4707892,9.15494,0.0076358155,0.0038179078,-0.012370021,20240202_145401_638
-0.39361933,3.4707892,9.140582,0.008857546,0.0025961774,-0.012370021,20240202_145401_641
-0.4127619,3.475575,9.126225,0.008857546,0.0050396384,-0.014813482,20240202_145401_642
-0.42711884,3.4612179,9.107083,0.010079277,0.0013744468,-0.016035212,20240202_145401_645
-0.4223332,3.4707892,9.116654,0.011301007,-9.162979E-4,-0.016035212,20240202_145401_646
-0.42711884,3.4947174,9.107083,0.011301007,0.0038179078,-0.016035212,20240202_145401_650
-0.44147578,3.4851463,9.145369,0.010079277,0.0013744468,-0.014813482,20240202_145401_651
-0.44626144,3.51386,9.131011,0.008857546,3.0543262E-4,-0.013591751,20240202_145401_653
-0.45583272,3.51386,9.135797,0.006414085,0.007483099,-0.013591751,20240202_145401_655
-0.4749753,3.5186458,9.140582,0.0076358155,0.0038179078,-0.014813482,20240202_145401_657
-0.47976094,3.51386,9.140582,0.008857546,0.0038179078,-0.012370021,20240202_145401_659
-0.48933223,3.528217,9.131011,0.006414085,0.0038179078,-0.011148291,20240202_145401_662
-0.4941179,3.51386,9.107083,0.005192355,0.0025961774,-0.00992656,20240202_145401_665
-0.4989035,3.5330026,9.107083,0.006414085,0.0013744468,-0.007483099,20240202_145401_666
-0.4989035,3.528217,9.097511,0.005192355,0.0013744468,-0.0062613687,20240202_145401_669
-0.48933223,3.5186458,9.08794,0.005192355,0.0013744468,-0.0038179078,20240202_145401_671
-0.4941179,3.51386,9.126225,0.003970624,1.5271631E-4,-0.0013744468,20240202_145401_673
-0.50368917,3.528217,9.126225,0.003970624,0.0025961774,-1.5271631E-4,20240202_145401_674
-0.4941179,3.5377884,9.135797,0.0027488936,0.0038179078,0.0022907446,20240202_145401_677
-0.50368917,3.5473595,9.135797,0.0015271631,1.5271631E-4,0.0035124752,20240202_145401_679
-0.5132605,3.5377884,9.111869,3.0543262E-4,0.0013744468,0.0047342055,20240202_145401_681
-0.4989035,3.542574,9.097511,0.0015271631,0.0013744468,0.0071776668,20240202_145401_685
-0.4941179,3.5521452,9.107083,3.0543262E-4,-9.162979E-4,0.008399397,20240202_145401_685
-0.48454657,3.5377884,9.092726,-9.162979E-4,-9.162979E-4,0.010842858,20240202_145401_688
-0.48933223,3.528217,9.111869,-0.0021380284,0.0013744468,0.013286319,20240202_145401_689
-0.4941179,3.51386,9.107083,-0.0033597588,-0.0021380284,0.01695151,20240202_145401_692
-0.4749753,3.5186458,9.111869,-0.004581489,0.0025961774,0.01695151,20240202_145401_694
-0.46061835,3.5234313,9.12144,-0.00580322,0.0013744468,0.01817324,20240202_145401_696
-0.47018966,3.528217,9.12144,-0.008246681,-0.0010690142,0.020463986,20240202_145401_698
-0.44626144,3.51386,9.12144,-0.008246681,0.0013744468,0.021838432,20240202_145401_701
-0.45104706,3.5042887,9.107083,-0.0070249503,1.5271631E-4,0.021838432,20240202_145401_702
-0.46061835,3.5234313,9.116654,-0.008246681,1.5271631E-4,0.019242255,20240202_145401_704
-0.4319045,3.5186458,9.12144,-0.0070249503,0.0013744468,0.020616703,20240202_145401_707
-0.4223332,3.5042887,9.135797,-0.00580322,0.0013744468,0.01695151,20240202_145401_709
-0.41754755,3.4995031,9.140582,-0.0033597588,0.0013744468,0.01817324,20240202_145401_711
-0.39840496,3.4995031,9.15494,-0.004581489,0.0038179078,0.01572978,20240202_145401_713
-0.39840496,3.4899318,9.15494,-9.162979E-4,0.0062613687,0.01572978,20240202_145401_716
-0.4127619,3.4899318,9.145369,-9.162979E-4,0.0038179078,0.013286319,20240202_145401_718
-0.4031906,3.4995031,9.174082,-0.0021380284,0.0038179078,0.010842858,20240202_145401_719
-0.40797627,3.4899318,9.150154,0.0015271631,0.007483099,0.0096211275,20240202_145401_722
-0.40797627,3.4612179,9.131011,0.0027488936,0.0038179078,0.008399397,20240202_145401_725
-0.4031906,3.4707892,9.145369,0.003970624,0.0013744468,0.0047342055,20240202_145401_726
-0.40797627,3.4707892,9.135797,0.003970624,0.0013744468,0.0035124752,20240202_145401_729
-0.4031906,3.4564323,9.15494,0.005192355,1.5271631E-4,0.0010690142,20240202_145401_730
-0.39840496,3.4707892,9.15494,0.003970624,1.5271631E-4,-1.5271631E-4,20240202_145401_733
-0.38883367,3.4660037,9.15494,0.003970624,-0.0022907446,-0.0025961774,20240202_145401_735
-0.4127619,3.4803605,9.164511,3.0543262E-4,-0.0022907446,-0.0038179078,20240202_145401_737
-0.41754755,3.4803605,9.169296,0.0015271631,0.0013744468,-0.0062613687,20240202_145401_739
-0.40797627,3.475575,9.15494,3.0543262E-4,-0.0010690142,-0.00870483,20240202_145401_741
-0.4319045,3.475575,9.15494,3.0543262E-4,-0.0010690142,-0.00870483,20240202_145401_743
-0.4319045,3.4612179,9.145369,-9.162979E-4,0.0013744468,-0.00992656,20240202_145401_745
-0.43669012,3.4707892,9.145369,-9.162979E-4,-0.0010690142,-0.008857546,20240202_145401_748
-0.43669012,3.4612179,9.107083,0.0015271631,-0.0022907446,-0.00870483,20240202_145401_750
-0.43669012,3.475575,9.111869,0.0015271631,-0.0022907446,-0.00992656,20240202_145401_754
-0.4319045,3.4803605,9.097511,3.0543262E-4,-0.0022907446,-0.00870483,20240202_145401_755
-0.44147578,3.4851463,9.111869,0.0015271631,-0.0035124752,-0.00992656,20240202_145401_756
-0.44147578,3.5090744,9.116654,0.0015271631,-0.0022907446,-0.00870483,20240202_145401_758
-0.44626144,3.51386,9.135797,0.0015271631,-0.0035124752,-0.00870483,20240202_145401_760
-0.45583272,3.5234313,9.131011,-9.162979E-4,-0.0022907446,-0.0076358155,20240202_145401_763
-0.44626144,3.51386,9.145369,0.0015271631,0.0013744468,-0.007483099,20240202_145401_765
-0.45104706,3.5234313,9.135797,3.0543262E-4,0.0025961774,-0.007483099,20240202_145401_767
-0.46061835,3.528217,9.131011,0.0027488936,0.0038179078,-0.0062613687,20240202_145401_770
-0.46061835,3.5377884,9.131011,3.0543262E-4,0.0025961774,-0.0062613687,20240202_145401_771
-0.45583272,3.5473595,9.12144,-9.162979E-4,0.0062613687,-0.0050396384,20240202_145401_773
-0.45583272,3.5473595,9.126225,3.0543262E-4,0.0050396384,-0.0050396384,20240202_145401_775
-0.47018966,3.5377884,9.116654,-9.162979E-4,0.0062613687,-0.0013744468,20240202_145401_777
-0.46061835,3.5330026,9.12144,0.0015271631,0.0062613687,-0.0013744468,20240202_145401_780
-0.44626144,3.5186458,9.126225,-9.162979E-4,0.0050396384,0.0022907446,20240202_145401_782
-0.47018966,3.5234313,9.126225,-9.162979E-4,0.0050396384,0.0022907446,20240202_145401_784
-0.465404,3.5090744,9.131011,-9.162979E-4,0.0062613687,0.005955936,20240202_145401_786
-0.465404,3.5234313,9.140582,-9.162979E-4,0.0050396384,0.0071776668,20240202_145401_789
-0.465404,3.5234313,9.12144,-0.0033597588,0.0038179078,0.010842858,20240202_145401_791
-0.45104706,3.5330026,9.126225,-0.0021380284,0.007483099,0.012064588,20240202_145401_794
-0.45583272,3.528217,9.126225,-9.162979E-4,0.0050396384,0.01450805,20240202_145401_795
-0.45583272,3.51386,9.12144,1.5271631E-4,0.00870483,0.01450805,20240202_145401_796
-0.46061835,3.5330026,9.126225,0.0013744468,0.011148291,0.01695151,20240202_145401_798
-0.45583272,3.5090744,9.111869,0.0013744468,0.00992656,0.019394971,20240202_145401_800
-0.45583272,3.5090744,9.126225,0.0025961774,0.00870483,0.019394971,20240202_145401_803
-0.44626144,3.4947174,9.131011,0.0013744468,0.012370021,0.020616703,20240202_145401_805
-0.45104706,3.5090744,9.126225,0.0050396384,0.011148291,0.021838432,20240202_145401_807
-0.44626144,3.4995031,9.116654,0.0050396384,0.00992656,0.020616703,20240202_145401_809
-0.45104706,3.5186458,9.116654,0.0038179078,0.012370021,0.020616703,20240202_145401_812
-0.45583272,3.5090744,9.131011,0.0025961774,0.011148291,0.021838432,20240202_145401_814
-0.45104706,3.5042887,9.126225,0.0038179078,0.0050396384,0.020616703,20240202_145401_816
-0.45104706,3.5042887,9.12144,1.5271631E-4,0.007483099,0.019394971,20240202_145401_818
-0.45583272,3.4995031,9.126225,-0.0035124752,0.0062613687,0.019394971,20240202_145401_821
-0.465404,3.4851463,9.135797,-0.0070249503,-0.0010690142,0.016798794,20240202_145401_823
-0.45104706,3.4947174,9.145369,-0.008246681,1.5271631E-4,0.016798794,20240202_145401_824
-0.45104706,3.4947174,9.140582,-0.009468411,1.5271631E-4,0.0143553335,20240202_145401_826
-0.44626144,3.4995031,9.12144,-0.011911872,-0.005955936,0.013133603,20240202_145401_829
-0.42711884,3.4899318,9.131011,-0.013133603,-0.0047342055,0.0106901415,20240202_145401_831
-0.4223332,3.4947174,9.150154,-0.0143553335,1.5271631E-4,0.008246681,20240202_145401_834
-0.42711884,3.4899318,9.150154,-0.0143553335,-0.005955936,0.008246681,20240202_145401_836
-0.44147578,3.4899318,9.169296,-0.0143553335,-0.008246681,0.00580322,20240202_145401_838
-0.4319045,3.4947174,9.150154,-0.011911872,-0.0010690142,0.0033597588,20240202_145401_840
-0.41754755,3.475575,9.135797,-0.011911872,-0.00580322,0.0033597588,20240202_145401_842
-0.42711884,3.4803605,9.140582,-0.009468411,-0.009468411,9.162979E-4,20240202_145401_844
-0.41754755,3.475575,9.140582,-0.009468411,-0.0033597588,-3.0543262E-4,20240202_145401_846
-0.40797627,3.4660037,9.140582,-0.0070249503,-0.008246681,-0.0015271631,20240202_145401_848
-0.4223332,3.4803605,9.131011,-0.00580322,-0.009468411,-0.0015271631,20240202_145401_850
-0.42711884,3.475575,9.145369,-0.004581489,-0.004581489,-0.003970624,20240202_145401_853
-0.4031906,3.4707892,9.164511,-0.0021380284,-0.0021380284,-0.003970624,20240202_145401_855
-0.41754755,3.4707892,9.183653,-0.0021380284,-0.0021380284,-0.005192355,20240202_145401_857
-0.40797627,3.4803605,9.174082,3.0543262E-4,0.0013744468,-0.0050396384,20240202_145401_859
-0.40797627,3.4803605,9.159725,0.0027488936,0.0025961774,-0.0025961774,20240202_145401_861
-0.4031906,3.4899318,9.150154,0.005192355,0.0062613687,-0.0050396384,20240202_145401_864
-0.4031906,3.4803605,9.140582,0.003970624,0.0050396384,-0.0050396384,20240202_145401_866
-0.40797627,3.4707892,9.145369,0.006414085,0.0025961774,-0.0050396384,20240202_145401_868
-0.4031906,3.4612179,9.140582,0.0076358155,0.0038179078,-0.0038179078,20240202_145401_870
-0.41754755,3.4612179,9.140582,0.008857546,0.00992656,-0.0038179078,20240202_145401_872
-0.42711884,3.4612179,9.145369,0.010079277,0.0050396384,-0.0038179078,20240202_145401_874
-0.42711884,3.475575,9.131011,0.011301007,0.0050396384,-0.0038179078,20240202_145401_877
-0.42711884,3.475575,9.140582,0.010079277,0.00992656,-0.0050396384,20240202_145401_880
-0.42711884,3.4899318,9.145369,0.011301007,0.007483099,-0.0062613687,20240202_145401_881
-0.41754755,3.4851463,9.12144,0.011301007,0.0050396384,-0.00870483,20240202_145401_883
-0.42711884,3.4899318,9.140582,0.010079277,0.007483099,-0.00992656,20240202_145401_886
-0.4319045,3.5090744,9.131011,0.010079277,0.0025961774,-0.012370021,20240202_145401_887
-0.43669012,3.5042887,9.135797,0.010079277,0.0025961774,-0.013591751,20240202_145401_890
-0.43669012,3.4995031,9.131011,0.008857546,0.0062613687,-0.012370021,20240202_145401_892
-0.42711884,3.5090744,9.145369,0.008857546,0.0025961774,-0.014813482,20240202_145401_894
-0.43669012,3.4995031,9.140582,0.008857546,3.0543262E-4,-0.013591751,20240202_145401_897
-0.45104706,3.5042887,9.15494,0.008857546,0.0050396384,-0.012370021,20240202_145401_897
-0.44626144,3.5090744,9.135797,0.0076358155,0.0025961774,-0.012370021,20240202_145401_900
-0.45583272,3.5234313,9.131011,0.006414085,-9.162979E-4,-0.011148291,20240202_145401_901
-0.45583272,3.5234313,9.116654,0.005192355,0.0025961774,-0.00992656,20240202_145401_903
-0.45104706,3.528217,9.12144,0.005192355,-0.0021380284,-0.00870483,20240202_145401_906
-0.46061835,3.528217,9.116654,0.005192355,-9.162979E-4,-0.00870483,20240202_145401_908
-0.45583272,3.528217,9.12144,0.003970624,-9.162979E-4,-0.0062613687,20240202_145401_910
-0.45583272,3.5330026,9.111869,0.006414085,-0.0021380284,-0.0038179078,20240202_145401_913
-0.4749753,3.5330026,9.126225,0.005192355,-9.162979E-4,-0.0025961774,20240202_145401_915
-0.47018966,3.5330026,9.12144,0.005192355,-9.162979E-4,-0.0013744468,20240202_145401_917
-0.47976094,3.5377884,9.12144,0.0027488936,-0.0021380284,-1.5271631E-4,20240202_145401_919
-0.47976094,3.5330026,9.126225,0.003970624,3.0543262E-4,0.0022907446,20240202_145401_921
-0.47018966,3.5377884,9.111869,0.003970624,-9.162979E-4,0.0035124752,20240202_145401_924
-0.47018966,3.5234313,9.097511,0.005192355,3.0543262E-4,0.005955936,20240202_145401_925
-0.47018966,3.528217,9.097511,0.006414085,0.0027488936,0.005955936,20240202_145401_928
-0.47018966,3.51386,9.102298,0.005192355,0.0015271631,0.005955936,20240202_145401_930
-0.465404,3.51386,9.097511,0.003970624,3.0543262E-4,0.0071776668,20240202_145401_932
-0.45583272,3.5042887,9.116654,0.0027488936,0.0025961774,0.008399397,20240202_145401_935
-0.465404,3.51386,9.126225,0.0015271631,3.0543262E-4,0.008399397,20240202_145401_937
-0.45583272,3.4851463,9.116654,3.0543262E-4,3.0543262E-4,0.0071776668,20240202_145401_939
-0.45583272,3.5042887,9.111869,-9.162979E-4,3.0543262E-4,0.0071776668,20240202_145401_942
-0.47018966,3.5090744,9.12144,-9.162979E-4,-9.162979E-4,0.005955936,20240202_145401_943
-0.45583272,3.5090744,9.145369,-0.0021380284,-9.162979E-4,0.0035124752,20240202_145401_945
-0.44626144,3.4995031,9.135797,-0.0033597588,-0.0033597588,0.0033597588,20240202_145401_947
-0.43669012,3.4851463,9.150154,-0.00580322,-0.0033597588,0.0021380284,20240202_145401_949
-0.465404,3.5042887,9.131011,-0.0033597588,-0.0033597588,9.162979E-4,20240202_145401_951
-0.45583272,3.51386,9.140582,-0.004581489,-0.0070249503,-3.0543262E-4,20240202_145401_954
-0.43669012,3.4947174,9.126225,-0.00580322,-0.0070249503,9.162979E-4,20240202_145401_956
-0.43669012,3.5042887,9.150154,-0.0070249503,-0.0070249503,-0.0015271631,20240202_145401_958
-0.42711884,3.4851463,9.140582,-0.00580322,-0.0070249503,-0.0027488936,20240202_145401_960
-0.43669012,3.4947174,9.131011,-0.004581489,-0.009468411,-0.0015271631,20240202_145401_962
-0.4319045,3.4899318,9.12144,-0.00580322,-0.0070249503,-0.003970624,20240202_145401_964
-0.43669012,3.4899318,9.131011,-0.0033597588,-0.008246681,-0.003970624,20240202_145401_966
-0.41754755,3.4899318,9.135797,-0.0021380284,-0.0070249503,-0.003970624,20240202_145401_969
-0.4223332,3.475575,9.12144,-0.0021380284,-0.004581489,-0.005192355,20240202_145401_970
-0.4223332,3.4803605,9.145369,0.0015271631,-9.162979E-4,-0.0038179078,20240202_145401_973
-0.4127619,3.4803605,9.15494,0.0015271631,-0.0010690142,-0.0050396384,20240202_145401_977
-0.4127619,3.4947174,9.159725,0.0015271631,-0.0010690142,-0.0050396384,20240202_145401_978
-0.4031906,3.4995031,9.159725,0.0027488936,0.0025961774,-0.0050396384,20240202_145401_980
-0.44147578,3.475575,9.135797,0.005192355,0.0062613687,-0.0050396384,20240202_145401_981
-0.4319045,3.4803605,9.131011,0.006414085,0.0025961774,-0.0062613687,20240202_145401_984
-0.42711884,3.4803605,9.12144,0.005192355,0.0025961774,-0.0050396384,20240202_145401_986
-0.42711884,3.4803605,9.126225,0.008857546,0.0050396384,-0.0062613687,20240202_145401_988
-0.4319045,3.475575,9.12144,0.008857546,0.0038179078,-0.0050396384,20240202_145401_990
-0.41754755,3.4899318,9.131011,0.010079277,0.0013744468,-0.0062613687,20240202_145401_993
-0.44147578,3.4899318,9.150154,0.011301007,0.0038179078,-0.0062613687,20240202_145401_995
-0.4319045,3.4995031,9.169296,0.011301007,0.0038179078,-0.0062613687,20240202_145401_997
-0.44626144,3.5042887,9.145369,0.0076358155,0.0038179078,-0.0062613687,20240202_145401_998
-0.44626144,3.4851463,9.150154,0.0076358155,0.0025961774,-0.0050396384,20240202_145402_001
-0.44147578,3.4947174,9.159725,0.008857546,0.0038179078,-0.0050396384,20240202_145402_002
-0.465404,3.4995031,9.145369,0.008857546,0.0025961774,-0.0050396384,20240202_145402_005
-0.45104706,3.4995031,9.135797,0.0076358155,0.0050396384,-0.0062613687,20240202_145402_007
-0.45104706,3.5090744,9.135797,0.008857546,0.0025961774,-0.0050396384,20240202_145402_009
-0.45583272,3.5090744,9.131011,0.010079277,0.0013744468,-0.0062613687,20240202_145402_011
-0.43669012,3.5090744,9.12144,0.010079277,0.0025961774,-0.0050396384,20240202_145402_014
-0.44626144,3.5042887,9.12144,0.008857546,0.0025961774,-0.0050396384,20240202_145402_016
-0.44626144,3.5186458,9.140582,0.0076358155,0.0038179078,-0.0050396384,20240202_145402_018
-0.44626144,3.51386,9.140582,0.0076358155,0.0050396384,-0.0038179078,20240202_145402_020
-0.44147578,3.528217,9.131011,0.006414085,0.0050396384,-0.0038179078,20240202_145402_022
-0.45583272,3.5090744,9.131011,0.006414085,0.0050396384,-0.0038179078,20240202_145402_024
-0.45104706,3.5186458,9.107083,0.005192355,0.0025961774,-0.0025961774,20240202_145402_027
-0.44147578,3.5186458,9.092726,0.006414085,0.0038179078,-0.0025961774,20240202_145402_029
-0.43669012,3.528217,9.092726,0.006414085,0.0062613687,-0.0013744468,20240202_145402_030
-0.42711884,3.5090744,9.083155,0.0076358155,0.0050396384,-0.0013744468,20240202_145402_033
-0.4319045,3.5186458,9.116654,0.0076358155,0.0025961774,-1.5271631E-4,20240202_145402_036
-0.43669012,3.5234313,9.131011,0.008857546,0.0062613687,-0.0013744468,20240202_145402_037
-0.44147578,3.5330026,9.131011,0.005192355,0.0050396384,-0.0013744468,20240202_145402_040
-0.43669012,3.542574,9.135797,0.003970624,0.0050396384,-0.0025961774,20240202_145402_041
-0.4319045,3.5473595,9.135797,0.005192355,0.0062613687,-0.0038179078,20240202_145402_045
-0.44626144,3.542574,9.135797,0.003970624,0.007483099,-0.0050396384,20240202_145402_046
-0.4223332,3.5330026,9.092726,0.005192355,0.0038179078,-0.0050396384,20240202_145402_049
-0.42711884,3.5234313,9.116654,0.0027488936,0.0050396384,-0.0062613687,20240202_145402_050
-0.41754755,3.5234313,9.092726,0.0015271631,0.0062613687,-0.007483099,20240202_145402_052
-0.43669012,3.51386,9.111869,0.003970624,0.0038179078,-0.0062613687,20240202_145402_054
-0.4319045,3.4947174,9.111869,0.0027488936,0.0062613687,-0.0062613687,20240202_145402_056
-0.44147578,3.4995031,9.145369,3.0543262E-4,0.007483099,-0.0050396384,20240202_145402_058
-0.44147578,3.51386,9.150154,0.0015271631,0.0062613687,-0.0038179078,20240202_145402_061
-0.44147578,3.5234313,9.150154,-9.162979E-4,0.007483099,-0.0025961774,20240202_145402_063
-0.45104706,3.5186458,9.12144,-9.162979E-4,0.00870483,-0.0025961774,20240202_145402_065
-0.45104706,3.51386,9.111869,-9.162979E-4,0.007483099,-0.0038179078,20240202_145402_068
-0.46061835,3.5090744,9.107083,0.0015271631,0.0062613687,-0.0025961774,20240202_145402_070
-0.46061835,3.4995031,9.12144,0.0027488936,0.0062613687,-0.0013744468,20240202_145402_072
-0.46061835,3.4899318,9.126225,0.0027488936,0.007483099,-0.0013744468,20240202_145402_074
-0.47018966,3.4899318,9.135797,0.003970624,0.0050396384,-0.0013744468,20240202_145402_075
-0.4749753,3.4947174,9.135797,0.005192355,0.0038179078,-1.5271631E-4,20240202_145402_078
-0.4749753,3.4995031,9.164511,0.006414085,0.00870483,0.0010690142,20240202_145402_081
-0.4749753,3.5090744,9.150154,0.005192355,0.007483099,0.0010690142,20240202_145402_082
-0.47976094,3.5042887,9.159725,0.003970624,0.0038179078,0.0010690142,20240202_145402_084
-0.47976094,3.5042887,9.150154,0.005192355,0.00870483,-1.5271631E-4,20240202_145402_087
-0.47976094,3.5042887,9.150154,0.005192355,0.0062613687,0.0010690142,20240202_145402_089
-0.47018966,3.4803605,9.140582,0.006414085,0.0038179078,0.0010690142,20240202_145402_091
-0.47976094,3.4851463,9.116654,0.006414085,0.0062613687,0.0022907446,20240202_145402_093
-0.47018966,3.475575,9.111869,0.006414085,0.0050396384,0.0010690142,20240202_145402_096
-0.45583272,3.4899318,9.111869,0.006414085,3.0543262E-4,0.0010690142,20240202_145402_098
-0.465404,3.4947174,9.116654,0.0076358155,0.0015271631,-1.5271631E-4,20240202_145402_099
-0.45583272,3.4995031,9.135797,0.006414085,0.0015271631,-0.0013744468,20240202_145402_101
-0.46061835,3.4995031,9.140582,0.005192355,-0.0021380284,-0.0025961774,20240202_145402_104
-0.47018966,3.4995031,9.145369,0.003970624,0.0013744468,-0.0025961774,20240202_145402_106
-0.45583272,3.5090744,9.145369,0.0027488936,3.0543262E-4,-0.0050396384,20240202_145402_108
-0.45583272,3.5090744,9.131011,0.0027488936,-0.0033597588,-0.0062613687,20240202_145402_110
-0.46061835,3.5042887,9.107083,0.0027488936,-0.0021380284,-0.0062613687,20240202_145402_113
-0.45104706,3.5042887,9.111869,0.0027488936,-9.162979E-4,-0.0062613687,20240202_145402_114
-0.44147578,3.4995031,9.116654,0.0027488936,-0.00580322,-0.007483099,20240202_145402_117
-0.4319045,3.4947174,9.102298,0.0015271631,-0.004581489,-0.00870483,20240202_145402_119
-0.4319045,3.5090744,9.111869,3.0543262E-4,-0.0010690142,-0.00992656,20240202_145402_121
-0.44626144,3.4995031,9.15494,3.0543262E-4,-0.0070249503,-0.008857546,20240202_145402_123
-0.44147578,3.5186458,9.150154,3.0543262E-4,-0.0033597588,-0.008857546,20240202_145402_125
-0.44626144,3.5234313,9.135797,-9.162979E-4,0.0013744468,-0.00870483,20240202_145402_127
-0.44626144,3.5234313,9.12144,-0.0033597588,-0.0033597588,-0.0076358155,20240202_145402_130
-0.44626144,3.5186458,9.116654,-0.0021380284,-0.0021380284,-0.006414085,20240202_145402_132
-0.44147578,3.51386,9.102298,-0.0021380284,0.0013744468,-0.006414085,20240202_145402_134
-0.45104706,3.5090744,9.092726,-0.0033597588,-0.004581489,-0.005192355,20240202_145402_136
-0.44626144,3.5234313,9.078369,-0.004581489,-0.004581489,-0.003970624,20240202_145402_138
-0.43669012,3.51386,9.097511,-0.004581489,-0.0010690142,-0.003970624,20240202_145402_141
-0.44147578,3.5473595,9.111869,-0.004581489,-0.00580322,-0.0027488936,20240202_145402_142
-0.45104706,3.5330026,9.111869,-0.0033597588,-0.0033597588,-0.0015271631,20240202_145402_145
-0.46061835,3.5521452,9.135797,-0.00580322,-0.0010690142,-3.0543262E-4,20240202_145402_147
-0.46061835,3.5377884,9.140582,-0.0070249503,-0.004581489,-0.0015271631,20240202_145402_149
-0.4749753,3.5473595,9.12144,-0.0070249503,-0.0022907446,-3.0543262E-4,20240202_145402_151
-0.465404,3.5473595,9.116654,-0.0070249503,-0.0022907446,-0.0015271631,20240202_145402_153
-0.47018966,3.5377884,9.126225,-0.008246681,-0.0022907446,9.162979E-4,20240202_145402_155
-0.45583272,3.5186458,9.116654,-0.008246681,-0.0022907446,9.162979E-4,20240202_145402_157
-0.46061835,3.5234313,9.111869,-0.009468411,-0.0022907446,0.0021380284,20240202_145402_159
-0.47018966,3.5186458,9.12144,-0.008246681,1.5271631E-4,0.004581489,20240202_145402_161
-0.45104706,3.5042887,9.126225,-0.00580322,1.5271631E-4,0.00580322,20240202_145402_164
-0.46061835,3.4947174,9.126225,-0.008246681,-0.0021380284,0.008246681,20240202_145402_165
-0.45104706,3.51386,9.116654,-0.0070249503,0.0025961774,0.008246681,20240202_145402_168
-0.46061835,3.51386,9.111869,-0.00580322,0.0025961774,0.0096211275,20240202_145402_170
-0.45104706,3.51386,9.116654,-0.004581489,1.5271631E-4,0.010842858,20240202_145402_172
-0.44147578,3.51386,9.126225,-0.0033597588,0.0038179078,0.013286319,20240202_145402_175
-0.44626144,3.5090744,9.097511,-0.0021380284,0.0025961774,0.013286319,20240202_145402_177
-0.44147578,3.5042887,9.135797,-0.0033597588,1.5271631E-4,0.013286319,20240202_145402_180
-0.43669012,3.5090744,9.12144,-9.162979E-4,0.0025961774,0.010842858,20240202_145402_182
-0.44147578,3.51386,9.131011,-0.0021380284,0.0013744468,0.0096211275,20240202_145402_183
-0.4319045,3.5042887,9.135797,-0.0021380284,-9.162979E-4,0.008399397,20240202_145402_186
-0.44626144,3.5186458,9.150154,-0.0021380284,0.0025961774,0.005955936,20240202_145402_188
-0.4319045,3.5186458,9.145369,-0.0033597588,-9.162979E-4,0.0033597588,20240202_145402_190
-0.41754755,3.51386,9.145369,-0.004581489,-0.0010690142,9.162979E-4,20240202_145402_192
-0.41754755,3.5042887,9.145369,-0.00580322,-0.0010690142,-0.0015271631,20240202_145402_194
-0.4031906,3.4947174,9.15494,-0.00580322,-0.0033597588,-0.005192355,20240202_145402_197
-0.40797627,3.4899318,9.159725,-0.0056505036,-0.004581489,-0.006414085,20240202_145402_200
-0.39840496,3.4899318,9.15494,-0.006872234,-0.0010690142,-0.008857546,20240202_145402_201
-0.4031906,3.475575,9.140582,-0.008093964,-0.0010690142,-0.008857546,20240202_145402_202
-0.4127619,3.475575,9.145369,-0.008093964,-0.00580322,-0.0125227375,20240202_145402_205
-0.4127619,3.4803605,9.131011,-0.009315695,-0.0035124752,-0.014966198,20240202_145402_207
-0.4127619,3.4851463,9.116654,-0.009315695,-0.00580322,-0.016187929,20240202_145402_209
-0.4223332,3.475575,9.126225,-0.009315695,-0.008246681,-0.01740966,20240202_145402_211
-0.4223332,3.5042887,9.140582,-0.008093964,-0.0022907446,-0.01863139,20240202_145402_213
-0.4127619,3.4995031,9.131011,-0.009315695,-0.0070249503,-0.01863139,20240202_145402_216
-0.44626144,3.4995031,9.15494,-0.008093964,-0.0070249503,-0.01863139,20240202_145402_218
-0.45104706,3.4995031,9.159725,-0.008093964,-0.0010690142,-0.01985312,20240202_145402_220
-0.44147578,3.5042887,9.183653,-0.006872234,-0.0033597588,-0.01985312,20240202_145402_222
-0.46061835,3.4995031,9.174082,-0.006872234,-0.004581489,-0.01863139,20240202_145402_224
-0.44147578,3.5042887,9.174082,-0.004428773,0.0013744468,-0.01863139,20240202_145402_227
-0.44626144,3.4947174,9.159725,-0.0056505036,1.5271631E-4,-0.01740966,20240202_145402_229
-0.465404,3.5042887,9.140582,-0.0032070426,-0.0010690142,-0.016187929,20240202_145402_231
-0.46061835,3.4947174,9.116654,-0.001985312,1.5271631E-4,-0.013744468,20240202_145402_233
-0.45583272,3.4995031,9.131011,-7.6358154E-4,1.5271631E-4,-0.013744468,20240202_145402_235
-0.465404,3.51386,9.12144,0.0015271631,-0.0021380284,-0.011148291,20240202_145402_237
-0.465404,3.51386,9.107083,0.0027488936,1.5271631E-4,-0.00992656,20240202_145402_240
-0.47976094,3.5042887,9.126225,0.0027488936,-9.162979E-4,-0.00870483,20240202_145402_241
-0.47018966,3.51386,9.12144,0.0015271631,-0.0021380284,-0.007483099,20240202_145402_244
-0.47018966,3.4995031,9.131011,0.0027488936,0.0013744468,-0.0062613687,20240202_145402_246
-0.45104706,3.51386,9.111869,0.0015271631,1.5271631E-4,-0.0062613687,20240202_145402_248
-0.465404,3.4995031,9.116654,0.0015271631,-0.0022907446,-0.0050396384,20240202_145402_250
-0.46061835,3.5042887,9.097511,3.0543262E-4,0.0013744468,-0.0050396384,20240202_145402_252
-0.44626144,3.5234313,9.107083,3.0543262E-4,0.0038179078,-0.0050396384,20240202_145402_254
-0.44626144,3.5090744,9.131011,3.0543262E-4,0.0013744468,-0.0038179078,20240202_145402_256
-0.45583272,3.5042887,9.097511,-9.162979E-4,0.0025961774,-0.0038179078,20240202_145402_258
-0.43669012,3.4947174,9.12144,-0.0033597588,0.0062613687,-0.0025961774,20240202_145402_260
-0.44147578,3.4899318,9.111869,-0.0021380284,0.0050396384,-1.5271631E-4,20240202_145402_262
-0.42711884,3.5090744,9.116654,-0.0021380284,0.0050396384,0.0010690142,20240202_145402_265
-0.4319045,3.4899318,9.116654,-0.0033597588,0.0062613687,0.0035124752,20240202_145402_267
-0.45583272,3.4947174,9.111869,-0.0033597588,0.00870483,0.0047342055,20240202_145402_269
-0.44626144,3.4995031,9.116654,-0.0021380284,0.00870483,0.005955936,20240202_145402_272
-0.4223332,3.5042887,9.131011,3.0543262E-4,0.00992656,0.008399397,20240202_145402_273
-0.4031906,3.5186458,9.131011,0.0027488936,0.012370021,0.0096211275,20240202_145402_275
-0.42711884,3.5186458,9.140582,0.003970624,0.011148291,0.0096211275,20240202_145402_278
-0.42711884,3.5234313,9.145369,0.006414085,0.00992656,0.008399397,20240202_145402_281
-0.4319045,3.5234313,9.140582,0.00870483,0.016035212,0.0096211275,20240202_145402_282
-0.43669012,3.5377884,9.140582,0.00870483,0.013591751,0.010842858,20240202_145402_285
-0.44147578,3.528217,9.150154,0.011148291,0.011148291,0.010842858,20240202_145402_286
-0.44626144,3.5377884,9.145369,0.014813482,0.014813482,0.008399397,20240202_145402_289
-0.44626144,3.5234313,9.145369,0.014813482,0.014813482,0.008399397,20240202_145402_290
-0.45583272,3.51386,9.15494,0.013591751,0.012370021,0.0071776668,20240202_145402_293
-0.44147578,3.51386,9.15494,0.013591751,0.013591751,0.005955936,20240202_145402_295
-0.44626144,3.4947174,9.150154,0.017256944,0.014813482,0.0061086523,20240202_145402_297
-0.44626144,3.5042887,9.140582,0.017256944,0.012370021,0.004886922,20240202_145402_298
-0.45104706,3.4899318,9.15494,0.016035212,0.011148291,0.0035124752,20240202_145402_300
-0.45104706,3.4947174,9.135797,0.014813482,0.012370021,0.0035124752,20240202_145402_303
-0.45104706,3.4851463,9.135797,0.014966198,0.00992656,0.0022907446,20240202_145402_306
-0.465404,3.4899318,9.126225,0.014966198,0.00992656,0.0022907446,20240202_145402_307
-0.465404,3.475575,9.126225,0.0125227375,0.0062613687,-1.5271631E-4,20240202_145402_309
-0.46061835,3.475575,9.126225,0.0125227375,0.0050396384,-1.5271631E-4,20240202_145402_311
-0.4749753,3.4803605,9.116654,0.011301007,0.0038179078,-0.0013744468,20240202_145402_313
-0.47976094,3.4707892,9.111869,0.011301007,0.0013744468,-0.0025961774,20240202_145402_316
-0.47018966,3.475575,9.12144,0.008857546,0.0038179078,-0.0025961774,20240202_145402_318
-0.46061835,3.4803605,9.126225,0.006414085,0.0013744468,-0.0050396384,20240202_145402_320
-0.47976094,3.4803605,9.126225,0.005192355,0.0013744468,-0.0038179078,20240202_145402_322
-0.4749753,3.4995031,9.135797,0.003970624,3.0543262E-4,-0.0062613687,20240202_145402_326
-0.47976094,3.5042887,9.116654,0.0027488936,1.5271631E-4,-0.007483099,20240202_145402_327
-0.47018966,3.4995031,9.126225,0.0015271631,-0.0033597588,-0.007483099,20240202_145402_329
-0.465404,3.5090744,9.126225,0.0015271631,-9.162979E-4,-0.00870483,20240202_145402_332
-0.4749753,3.5042887,9.131011,0.0015271631,1.5271631E-4,-0.00870483,20240202_145402_334
-0.48454657,3.5042887,9.116654,0.0027488936,-9.162979E-4,-0.00992656,20240202_145402_336
-0.4749753,3.5042887,9.131011,3.0543262E-4,-9.162979E-4,-0.00870483,20240202_145402_337
-0.465404,3.4995031,9.140582,3.0543262E-4,-9.162979E-4,-0.0062613687,20240202_145402_339
-0.47018966,3.51386,9.135797,3.0543262E-4,-0.0021380284,-0.007483099,20240202_145402_341
-0.47976094,3.5042887,9.126225,3.0543262E-4,-9.162979E-4,-0.0062613687,20240202_145402_344
-0.4749753,3.5234313,9.135797,3.0543262E-4,-0.0021380284,-0.0062613687,20240202_145402_346
-0.465404,3.528217,9.126225,-9.162979E-4,-9.162979E-4,-0.0038179078,20240202_145402_348
-0.47018966,3.5330026,9.111869,-9.162979E-4,-0.004581489,-0.005192355,20240202_145402_350
-0.4749753,3.528217,9.107083,-0.0033597588,-0.00580322,-0.003970624,20240202_145402_353
-0.47018966,3.51386,9.145369,-0.0033597588,-0.0033597588,-0.0015271631,20240202_145402_354
-0.47018966,3.5234313,9.15494,-0.004581489,-0.0010690142,-0.0015271631,20240202_145402_356
-0.46061835,3.5186458,9.145369,-0.0021380284,-9.162979E-4,0.0010690142,20240202_145402_359
-0.46061835,3.5234313,9.150154,-0.0033597588,0.0050396384,0.0035124752,20240202_145402_361
-0.465404,3.4995031,9.145369,-9.162979E-4,0.0050396384,0.0047342055,20240202_145402_363
-0.47018966,3.5186458,9.12144,-9.162979E-4,0.0050396384,0.0071776668,20240202_145402_366
-0.47018966,3.5186458,9.107083,0.0015271631,0.00992656,0.008399397,20240202_145402_368
-0.47018966,3.5042887,9.111869,0.005192355,0.0050396384,0.0096211275,20240202_145402_370
-0.47018966,3.4899318,9.092726,0.006414085,0.0050396384,0.0096211275,20240202_145402_372
-0.465404,3.4899318,9.092726,0.007483099,0.00992656,0.012064588,20240202_145402_374
