acc_x,acc_y,acc_z,gyro_x,gyro_y,gyro_z,timestamp
0.68135625,4.831109,8.493324,-0.0711658,-9.162979E-4,0.016646078,20240202_130807_206
0.7004988,4.807181,8.465208,-0.076052725,-0.0021380284,0.016646078,20240202_130807_208
0.7052845,4.7688956,8.44128,-0.07849618,-9.162979E-4,0.01786781,20240202_130807_209
0.7196414,4.735396,8.412566,-0.08460484,-9.162979E-4,0.017715093,20240202_130807_210
0.7148558,4.7401814,8.393424,-0.0870483,-0.0070249503,0.018936822,20240202_130807_211
0.7196414,4.7210393,8.412566,-0.089491755,-0.00580322,0.020158553,20240202_130807_211
0.7148558,4.735396,8.431708,-0.09315695,-0.011911872,0.022602014,20240202_130807_212
0.71007013,4.7306104,8.436495,-0.09682214,-0.013133603,0.025045475,20240202_130807_213
0.7004988,4.759324,8.469994,-0.10048734,-0.01786781,0.023823744,20240202_130807_213
0.71007013,4.773681,8.507681,-0.10293079,-0.02397646,0.02611449,20240202_130807_214
0.72442704,4.7976093,8.5220375,-0.10888673,-0.026419923,0.02611449,20240202_130807_215
0.7196414,4.801797,8.565108,-0.10888673,-0.030085113,0.02611449,20240202_130807_215
0.7148558,4.811368,8.560323,-0.11377365,-0.03863723,0.02733622,20240202_130807_216
0.7148558,4.802395,8.560323,-0.116217114,-0.044593163,0.02611449,20240202_130807_216
0.7196414,4.8119664,8.550752,-0.11988231,-0.049480084,0.027183503,20240202_130807_231
0.7052845,4.7880383,8.541181,-0.12110403,-0.053145275,0.027183503,20240202_130807_231
0.69092757,4.773681,8.550752,-0.124769226,-0.0580322,0.027183503,20240202_130807_232
0.6861419,4.7688956,8.565108,-0.12232576,-0.06536258,0.028405234,20240202_130807_232
0.69571316,4.725825,8.57468,-0.12232576,-0.06780604,0.027183503,20240202_130807_233
0.69092757,4.735396,8.5938225,-0.117438845,-0.072540246,0.028405234,20240202_130807_233
0.7052845,4.7114677,8.603394,-0.11499538,-0.071318515,0.028405234,20240202_130807_234
0.7148558,4.6971107,8.612965,-0.11255192,-0.072540246,0.029626964,20240202_130807_234
0.7148558,4.706682,8.57468,-0.107665,-0.07742717,0.028405234,20240202_130807_236
0.69571316,4.7114677,8.579466,-0.101556346,-0.07742717,0.02977968,20240202_130807_240
0.72442704,4.6971107,8.589037,-0.094225965,-0.08109236,0.031001411,20240202_130807_241
0.7052845,4.706682,8.589037,-0.08811731,-0.08231409,0.02855795,20240202_130807_242
0.71007013,4.6875396,8.5938225,-0.08323039,-0.0786489,0.031001411,20240202_130807_248
0.7052845,4.6779685,8.589635,-0.08078693,-0.079870634,0.02977968,20240202_130807_250
0.69571316,4.6779685,8.603992,-0.07467828,-0.08353582,0.029932396,20240202_130807_252
0.7052845,4.65404,8.613564,-0.06994407,-0.08460484,0.031154128,20240202_130807_253
0.7052845,4.6492543,8.613564,-0.06872234,-0.08231409,0.027488936,20240202_130807_254
0.7004988,4.644469,8.613564,-0.06505715,-0.079870634,0.031154128,20240202_130807_256
0.71007013,4.6396832,8.608778,-0.06261369,-0.08460484,0.026267206,20240202_130807_257
0.7148558,4.644469,8.632108,-0.061391957,-0.08109236,0.025045475,20240202_130807_259
0.7052845,4.6492543,8.618349,-0.06261369,-0.08109236,0.022602014,20240202_130807_261
0.7292127,4.644469,8.608778,-0.061239243,-0.08231409,0.018936822,20240202_130807_264
0.738784,4.634897,8.612965,-0.061239243,-0.08109236,0.017715093,20240202_130807_266
0.738784,4.6205406,8.622537,-0.061239243,-0.08109236,0.01282817,20240202_130807_268
0.7531409,4.6301117,8.617751,-0.061239243,-0.0786489,0.01160644,20240202_130807_271
0.7722835,4.615755,8.636893,-0.06246097,-0.072540246,0.007941248,20240202_130807_272
0.77706915,4.5918264,8.636893,-0.061239243,-0.072540246,0.0067195175,20240202_130807_274
0.79142606,4.5918264,8.641679,-0.06246097,-0.06887506,0.0018325958,20240202_130807_276
0.8009974,4.5918264,8.589037,-0.061239243,-0.063988134,-0.0018325958,20240202_130807_279
0.8009974,4.587041,8.5938225,-0.05879578,-0.060322944,-0.004276057,20240202_130807_281
0.8249256,4.57747,8.608179,-0.056352317,-0.0580322,-0.005497787,20240202_130807_283
0.84406817,4.5631127,8.598608,-0.05390886,-0.051923547,-0.007788532,20240202_130807_291
0.8775677,4.5678983,8.589037,-0.05024367,-0.048258353,-0.011453724,20240202_130807_292
0.87278205,4.5726843,8.608179,-0.046578474,-0.040927973,-0.013897184,20240202_130807_293
0.887139,4.558327,8.622537,-0.041691553,-0.03359759,-0.015118915,20240202_130807_294
0.887139,4.57747,8.617751,-0.03940081,-0.028863383,-0.017562376,20240202_130807_296
0.8967103,4.5822554,8.617751,-0.034513887,-0.02397646,-0.01985312,20240202_130807_297
0.90149593,4.587041,8.641679,-0.029626964,-0.019089539,-0.01863139,20240202_130807_306
0.9062816,4.615755,8.636893,-0.023518313,-0.010537425,-0.02107485,20240202_130807_307
0.9062816,4.615755,8.656036,-0.022296581,-0.001985312,-0.01985312,20240202_130807_308
0.91106725,4.6205406,8.608179,-0.022296581,-0.0032070426,-0.022296581,20240202_130807_308
0.9062816,4.6205406,8.589037,-0.016187929,0.0015271631,-0.022143865,20240202_130807_308
0.887139,4.6301117,8.622537,-0.0125227375,0.0076358155,-0.023365596,20240202_130807_310
0.8775677,4.6301117,8.617751,-0.008857546,0.005192355,-0.024587326,20240202_130807_311
0.87278205,4.634897,8.627322,-0.0053450707,0.008857546,-0.025809057,20240202_130807_313
0.87278205,4.6492543,8.646464,-0.00290161,0.010079277,-0.027030786,20240202_130807_315
0.8536395,4.6779685,8.617751,7.6358154E-4,0.011301007,-0.029474247,20240202_130807_317
0.85842514,4.6875396,8.612965,-0.0015271631,0.00290161,-0.029474247,20240202_130807_319
0.84406817,4.6875396,8.608179,-3.0543262E-4,0.006414085,-0.030695979,20240202_130807_321
0.82013994,4.682754,8.598608,-0.0027488936,-0.0032070426,-0.03191771,20240202_130807_323
0.82013994,4.6875396,8.5938225,-0.0027488936,-0.0056505036,-0.03191771,20240202_130807_326
0.8105687,4.692325,8.612965,-0.0027488936,-0.009315695,-0.03191771,20240202_130807_328
0.76749784,4.692325,8.589037,-0.003970624,-0.01786781,-0.03313944,20240202_130807_330
0.7722835,4.6875396,8.5938225,-0.005192355,-0.022602014,-0.03191771,20240202_130807_332
0.74835527,4.6875396,8.584251,-0.005192355,-0.023823744,-0.03313944,20240202_130807_334
0.73399836,4.692325,8.5938225,-0.005192355,-0.031154128,-0.03191771,20240202_130807_336
0.7196414,4.7018967,8.5938225,-0.006414085,-0.03848451,-0.032070424,20240202_130807_339
0.69571316,4.682754,8.584849,-0.0076358155,-0.03848451,-0.030848695,20240202_130807_341
0.68135625,4.692325,8.589635,-0.005192355,-0.040927973,-0.029626964,20240202_130807_342
0.6765706,4.6875396,8.599206,-0.006414085,-0.046883907,-0.027183503,20240202_130807_345
0.6622137,4.6971107,8.584849,-0.0015271631,-0.045662176,-0.024587326,20240202_130807_347
0.657428,4.692325,8.59442,-0.0027488936,-0.046883907,-0.024740042,20240202_130807_349
0.67178494,4.692325,8.580064,-0.0015271631,-0.046883907,-0.022143865,20240202_130807_351
0.66699934,4.6971107,8.589635,-3.0543262E-4,-0.045662176,-0.019700404,20240202_130807_353
0.66699934,4.682754,8.608778,-3.0543262E-4,-0.03848451,-0.018478673,20240202_130807_356
0.66699934,4.6779685,8.608778,0.0033597588,-0.03726278,-0.016035212,20240202_130807_357
0.6478567,4.668397,8.608778,0.0033597588,-0.03970624,-0.016035212,20240202_130807_360
0.6430711,4.644469,8.580064,0.0056505036,-0.031154128,-0.012370021,20240202_130807_362
0.62452674,4.6396832,8.575278,0.006872234,-0.025045475,-0.011148291,20240202_130807_364
0.62931234,4.6301117,8.560922,0.010537425,-0.026267206,-0.011148291,20240202_130807_369
0.634098,4.6205406,8.565707,0.009315695,-0.022602014,-0.007483099,20240202_130807_370
0.634098,4.615755,8.546564,0.009315695,-0.015271631,-0.007330383,20240202_130807_370
0.65264237,4.615755,8.560922,0.012980887,-0.010537425,-0.004886922,20240202_130807_373
0.657428,4.6061835,8.560922,0.011759156,-0.014049901,-0.0036651916,20240202_130807_375
0.67178494,4.615755,8.560922,0.011759156,-0.004428773,-0.002443461,20240202_130807_377
0.6765706,4.601398,8.55135,0.014049901,-0.0032070426,-0.0012217305,20240202_130807_379
0.6861419,4.601398,8.580064,0.014049901,-7.6358154E-4,0.0,20240202_130807_381
0.69092757,4.6205406,8.565707,0.01038471,0.0016798794,0.0,20240202_130807_383
0.6861419,4.615755,8.541779,0.009162978,4.5814895E-4,0.0,20240202_130807_385
0.68135625,4.6061835,8.570493,0.007941248,0.0041233404,0.0012217305,20240202_130807_388
0.67178494,4.615755,8.560922,0.009162978,0.009010263,0.0012217305,20240202_130807_390
0.68135625,4.6061835,8.580064,0.0067195175,0.009010263,0.0012217305,20240202_130807_392
0.69571316,4.615755,8.565707,0.005497787,0.007788532,0.002443461,20240202_130807_394
0.7052845,4.601398,8.560922,6.1086525E-4,0.0065668016,0.0036651916,20240202_130807_396
0.7148558,4.615755,8.565707,-0.00290161,0.0053450707,0.0036651916,20240202_130807_399
0.69571316,4.6301117,8.541779,-0.0053450707,-0.001985312,0.0047342055,20240202_130807_401
0.7148558,4.6636114,8.556135,-0.007788532,-0.0032070426,0.0047342055,20240202_130807_403
0.7052845,4.682754,8.55135,-0.013897184,-0.008093964,0.0022907446,20240202_130807_405
0.7196414,4.6875396,8.536993,-0.015118915,-0.006872234,0.0022907446,20240202_130807_408
0.7148558,4.692325,8.560922,-0.017562376,-0.010537425,0.0047342055,20240202_130807_409
0.71007013,4.6875396,8.570493,-0.021227567,-0.014202617,0.0021380284,20240202_130807_411
0.7148558,4.6875396,8.59442,-0.024892759,-0.0154243475,0.0033597588,20240202_130807_413
0.7148558,4.6636114,8.584849,-0.02733622,-0.0154243475,0.00580322,20240202_130807_415
0.71007013,4.6779685,8.580064,-0.02611449,-0.0154243475,0.0070249503,20240202_130807_418
0.7004988,4.65404,8.584849,-0.02611449,-0.016493361,0.0106901415,20240202_130807_420
0.7052845,4.658826,8.584849,-0.024892759,-0.014202617,0.0106901415,20240202_130807_422
0.71007013,4.6636114,8.556135,-0.020005837,-0.014202617,0.01450805,20240202_130807_424
0.7148558,4.668397,8.575278,-0.018784106,-0.012980887,0.01450805,20240202_130807_426
0.7148558,4.6731825,8.55135,-0.015118915,-0.012980887,0.01817324,20240202_130807_428
0.72442704,4.6779685,8.575278,-0.01038471,-0.009315695,0.01817324,20240202_130807_430
0.7196414,4.682754,8.599206,-0.0067195175,-0.006872234,0.020616703,20240202_130807_433
0.73399836,4.6965127,8.618349,-0.004276057,-0.0032070426,0.023060163,20240202_130807_435
0.7196414,4.6821556,8.618349,-0.0030543262,-0.0032070426,0.02443461,20240202_130807_437
0.7292127,4.691727,8.623135,6.1086525E-4,-7.6358154E-4,0.02687807,20240202_130807_439
0.7196414,4.682754,8.599206,0.004276057,0.0016798794,0.02687807,20240202_130807_442
0.71007013,4.706084,8.599206,0.005497787,-0.004428773,0.030543262,20240202_130807_444
0.71007013,4.706682,8.589635,0.009162978,-0.001985312,0.030543262,20240202_130807_445
0.7196414,4.7018967,8.580064,0.009162978,-0.0056505036,0.03176499,20240202_130807_448
0.72442704,4.7018967,8.584849,0.01160644,-0.0067195175,0.032986723,20240202_130807_450
0.7148558,4.7018967,8.599206,0.010231993,-0.009162978,0.035430185,20240202_130807_452
0.7148558,4.706084,8.62792,0.010231993,-0.007941248,0.035430185,20240202_130807_454
0.7435696,4.7252264,8.617751,0.01038471,-0.01160644,0.034208454,20240202_130807_457
0.7292127,4.720441,8.617751,0.009010263,-0.007941248,0.035430185,20240202_130807_459
0.72442704,4.7156553,8.618349,0.009162978,-0.007941248,0.034208454,20240202_130807_460
0.7435696,4.6971107,8.59442,0.011453724,-0.0067195175,0.034208454,20240202_130807_463
0.7531409,4.6875396,8.584849,0.009162978,-0.004428773,0.032986723,20240202_130807_465
0.76749784,4.6875396,8.575278,0.01038471,-0.007941248,0.034208454,20240202_130807_467
0.7722835,4.65404,8.560922,0.01038471,-0.0032070426,0.03176499,20240202_130807_469
0.77706915,4.634897,8.565707,0.009010263,-0.001985312,0.032986723,20240202_130807_472
0.7818548,4.625326,8.556135,0.009010263,-0.0032070426,0.032986723,20240202_130807_473
0.8009974,4.615755,8.541779,0.009162978,-7.6358154E-4,0.030543262,20240202_130807_476
0.79142606,4.6061835,8.541779,0.0067195175,4.5814895E-4,0.03176499,20240202_130807_478
0.7962117,4.615755,8.522636,0.007941248,-0.001985312,0.030543262,20240202_130807_480
0.8105687,4.615755,8.517851,0.0067195175,-0.0032070426,0.030543262,20240202_130807_483
0.8249256,4.615755,8.5322075,0.0067195175,4.5814895E-4,0.029321533,20240202_130807_484
0.82013994,4.634897,8.527422,0.004276057,-0.001985312,0.02565634,20240202_130807_487
0.82971126,4.65404,8.536993,0.0030543262,-7.6358154E-4,0.028099801,20240202_130807_489
0.8344969,4.65404,8.560323,6.1086525E-4,0.0016798794,0.021991149,20240202_130807_491
0.8344969,4.65404,8.579466,-0.0018325958,-0.001985312,0.021991149,20240202_130807_493
0.8488538,4.6636114,8.589037,-0.004276057,-7.6358154E-4,0.019547688,20240202_130807_495
0.8344969,4.65404,8.579466,-0.005497787,0.0053450707,0.017104227,20240202_130807_497
0.82971126,4.634897,8.579466,-0.005497787,0.0041233404,0.017104227,20240202_130807_499
0.8249256,4.634897,8.598608,-0.005497787,0.0065668016,0.012064588,20240202_130807_501
0.8249256,4.615755,8.565707,-0.0030543262,0.010231993,0.013439035,20240202_130807_504
0.8249256,4.6205406,8.560922,-6.1086525E-4,0.009010263,0.012217305,20240202_130807_506
0.8344969,4.615755,8.565707,0.0030543262,0.0065668016,0.009773844,20240202_130807_508
0.8392825,4.634897,8.555537,0.0067195175,0.0065668016,0.010995574,20240202_130807_510
0.8488538,4.644469,8.565108,0.007941248,0.0053450707,0.010995574,20240202_130807_512
0.8344969,4.668397,8.57468,0.01160644,0.0016798794,0.010995574,20240202_130807_514
0.82971126,4.6779685,8.598608,0.01038471,-7.6358154E-4,0.009773844,20240202_130807_518
0.8249256,4.6779685,8.5938225,0.014049901,4.5814895E-4,0.010995574,20240202_130807_520
0.80578303,4.6779685,8.5938225,0.016493361,-0.0032070426,0.007330383,20240202_130807_522
0.80578303,4.692325,8.598608,0.018936822,-0.004428773,0.007330383,20240202_130807_523
0.8009974,4.692325,8.608179,0.017715093,-0.0056505036,0.007330383,20240202_130807_525
0.79142606,4.6971107,8.584251,0.021380283,-0.009162978,0.0061086523,20240202_130807_528
0.7818548,4.682754,8.603394,0.021380283,-0.007941248,0.008552114,20240202_130807_530
0.77706915,4.692325,8.5938225,0.021380283,-0.01038471,0.0061086523,20240202_130807_532
0.78664047,4.7018967,8.598608,0.025045475,-0.01038471,0.007330383,20240202_130807_534
0.78664047,4.7114677,8.598608,0.023823744,-0.009162978,0.008552114,20240202_130807_536
0.7818548,4.7018967,8.57468,0.026267206,-0.009162978,0.0061086523,20240202_130807_538
0.77706915,4.7114677,8.589037,0.028710667,-0.01160644,0.008552114,20240202_130807_540
0.7818548,4.720441,8.565707,0.029932396,-0.009162978,0.00870483,20240202_130807_542
0.79142606,4.7018967,8.541779,0.032375857,-0.009162978,0.00992656,20240202_130807_544
0.7962117,4.7114677,8.541779,0.03481932,-0.009162978,0.00870483,20240202_130807_547
0.80578303,4.706682,8.541779,0.03604105,-0.009162978,0.00992656,20240202_130807_548
0.8105687,4.706682,8.5322075,0.03726278,-0.0030543262,0.011148291,20240202_130807_551
0.8009974,4.7162533,8.517851,0.03726278,-0.005497787,0.00992656,20240202_130807_553
0.7962117,4.6971107,8.522636,0.03481932,-0.0067195175,0.011148291,20240202_130807_556
0.8009974,4.6971107,8.536993,0.03604105,0.0018325958,0.011148291,20240202_130807_558
0.8009974,4.7162533,8.522636,0.03359759,-6.1086525E-4,0.013591751,20240202_130807_560
0.78664047,4.7114677,8.513064,0.032375857,0.0053450707,0.012370021,20240202_130807_561
0.80578303,4.6971107,8.517851,0.032223143,0.010231993,0.013591751,20240202_130807_564
0.8009974,4.692325,8.527422,0.032375857,0.007788532,0.013591751,20240202_130807_566
0.80578303,4.7018967,8.546564,0.032223143,0.011453724,0.014813482,20240202_130807_568
0.8153543,4.7018967,8.527422,0.02977968,0.015118915,0.018478673,20240202_130807_570
0.82013994,4.725825,8.5322075,0.02977968,0.013897184,0.017256944,20240202_130807_573
0.8153543,4.735396,8.517851,0.02855795,0.013897184,0.018478673,20240202_130807_575
0.80578303,4.749753,8.527422,0.024892759,0.015118915,0.018478673,20240202_130807_577
0.80578303,4.768297,8.541181,0.023823744,0.011453724,0.017256944,20240202_130807_579
0.7962117,4.758726,8.536993,0.020158553,0.009010263,0.018478673,20240202_130807_581
0.77706915,4.7401814,8.513064,0.017715093,0.010231993,0.015882496,20240202_130807_583
0.76271224,4.7306104,8.508279,0.01038471,0.0041233404,0.014660766,20240202_130807_585
0.7579266,4.725825,8.493922,0.007941248,-7.6358154E-4,0.013439035,20240202_130807_588
0.7579266,4.7114677,8.517851,0.0030543262,-7.6358154E-4,0.010995574,20240202_130807_590
0.74835527,4.7018967,8.522636,0.0018325958,4.5814895E-4,0.010995574,20240202_130807_592
0.76271224,4.7018967,8.527422,-0.0041233404,-0.004428773,0.008399397,20240202_130807_594
0.7579266,4.692325,8.5322075,-0.007788532,-0.004428773,0.0096211275,20240202_130807_597
0.76271224,4.692325,8.517851,-0.009010263,4.5814895E-4,0.008399397,20240202_130807_599
0.7722835,4.6971107,8.527422,-0.010231993,4.5814895E-4,0.0071776668,20240202_130807_601
0.76749784,4.6971107,8.517851,-0.011453724,0.00290161,0.005955936,20240202_130807_603
0.79142606,4.6971107,8.508279,-0.012675454,0.0041233404,0.005955936,20240202_130807_605
0.77706915,4.6731825,8.498708,-0.013897184,0.010231993,0.005955936,20240202_130807_607
0.7722835,4.668397,8.522636,-0.013897184,0.011453724,0.0047342055,20240202_130807_609
0.76749784,4.65404,8.508279,-0.013897184,0.012675454,0.0047342055,20240202_130807_611
0.7579266,4.65404,8.508279,-0.013897184,0.014966198,0.0047342055,20240202_130807_613
0.7579266,4.644469,8.5322075,-0.012675454,0.01985312,0.0035124752,20240202_130807_615
0.74835527,4.6636114,8.527422,-0.015118915,0.016187929,0.0022907446,20240202_130807_617
0.7435696,4.6492543,8.5322075,-0.016340645,0.016187929,0.0022907446,20240202_130807_620
0.738784,4.6636114,8.517851,-0.016340645,0.01740966,0.0022907446,20240202_130807_622
0.7148558,4.682754,8.527422,-0.016340645,0.0125227375,0.0022907446,20240202_130807_624
0.72442704,4.6731825,8.55135,-0.021227567,0.0053450707,-1.5271631E-4,20240202_130807_626
0.7196414,4.6731825,8.536993,-0.02367103,0.0065668016,0.0010690142,20240202_130807_628
0.7004988,4.658826,8.546564,-0.02611449,0.00290161,-1.5271631E-4,20240202_130807_631
0.69571316,4.6492543,8.55135,-0.02733622,-0.0056505036,0.0021380284,20240202_130807_633
0.7004988,4.644469,8.565707,-0.02977968,-0.001985312,0.0021380284,20240202_130807_635
0.7148558,4.658826,8.565707,-0.02977968,-0.008093964,0.0033597588,20240202_130807_636
0.7004988,4.65404,8.575278,-0.031001411,-0.010537425,0.00580322,20240202_130807_639
0.7004988,4.668397,8.575278,-0.032223143,-0.012980887,0.0070249503,20240202_130807_641
0.69571316,4.668397,8.59442,-0.031001411,-0.012980887,0.008246681,20240202_130807_644
0.7004988,4.6779685,8.603992,-0.02855795,-0.0154243475,0.008246681,20240202_130807_646
0.69092757,4.6875396,8.59442,-0.02855795,-0.014202617,0.008246681,20240202_130807_647
0.71007013,4.6731825,8.608778,-0.02733622,-0.016493361,0.009468411,20240202_130807_649
0.7196414,4.6875396,8.59442,-0.02367103,-0.015271631,0.011911872,20240202_130807_652
0.73399836,4.691727,8.618349,-0.022449298,-0.014049901,0.0106901415,20240202_130807_654
0.738784,4.686941,8.613564,-0.022449298,-0.016493361,0.0143553335,20240202_130807_657
0.7579266,4.691727,8.618349,-0.018784106,-0.017715093,0.013286319,20240202_130807_658
0.7531409,4.701298,8.623135,-0.017562376,-0.014049901,0.01450805,20240202_130807_660
0.7579266,4.706084,8.603992,-0.016340645,-0.015271631,0.01572978,20240202_130807_663
0.7531409,4.7156553,8.599206,-0.016340645,-0.015271631,0.01450805,20240202_130807_665
0.7722835,4.7210393,8.570493,-0.016340645,-0.01282817,0.01450805,20240202_130807_667
0.7579266,4.7114677,8.556135,-0.017562376,-0.017715093,0.01450805,20240202_130807_670
0.7722835,4.692325,8.580064,-0.016340645,-0.014049901,0.012064588,20240202_130807_671
0.77706915,4.682754,8.55135,-0.016340645,-0.011759156,0.012064588,20240202_130807_673
0.7962117,4.6731825,8.575278,-0.018784106,-0.008093964,0.0096211275,20240202_130807_676
0.8009974,4.658826,8.546564,-0.020005837,-0.008093964,0.010842858,20240202_130807_678
0.82971126,4.65404,8.527422,-0.022449298,-0.009315695,0.005955936,20240202_130807_680
0.84406817,4.668397,8.508279,-0.02367103,-0.004428773,0.005955936,20240202_130807_682
0.8488538,4.6492543,8.489137,-0.02611449,-0.004428773,0.004581489,20240202_130807_684
0.8488538,4.6396832,8.493922,-0.02611449,-0.0032070426,0.0021380284,20240202_130807_686
0.8488538,4.644469,8.503493,-0.031001411,-7.6358154E-4,9.162979E-4,20240202_130807_689
0.84406817,4.625326,8.503493,-0.032223143,0.00290161,-3.0543262E-4,20240202_130807_691
0.8488538,4.6205406,8.513064,-0.036957346,-0.001985312,9.162979E-4,20240202_130807_693
0.84406817,4.601398,8.517851,-0.038179077,0.0041233404,-0.0015271631,20240202_130807_695
0.8249256,4.615755,8.517851,-0.04062254,0.00290161,-0.0015271631,20240202_130807_697
0.82971126,4.615755,8.508279,-0.04184427,4.5814895E-4,-0.0027488936,20240202_130807_700
0.84406817,4.601398,8.503493,-0.04550946,-0.001985312,-0.003970624,20240202_130807_701
0.84406817,4.610969,8.513064,-0.04550946,4.5814895E-4,-0.003970624,20240202_130807_704
0.8536395,4.625326,8.527422,-0.046731193,-0.0056505036,-0.0027488936,20240202_130807_706
0.85842514,4.6301117,8.522636,-0.04917465,-0.0056505036,-0.00290161,20240202_130807_708
0.8344969,4.6396832,8.541779,-0.04917465,-0.001985312,-0.0027488936,20240202_130807_711
0.85842514,4.668397,8.541779,-0.051618114,-0.006872234,-0.0041233404,20240202_130807_713
0.84406817,4.6731825,8.570493,-0.054061573,-0.008093964,-0.00290161,20240202_130807_714
0.8679964,4.6731825,8.565108,-0.056505036,-0.006872234,-0.00290161,20240202_130807_717
0.8536395,4.6731825,8.584251,-0.054061573,-0.008093964,-4.5814895E-4,20240202_130807_719
0.8536395,4.6731825,8.5938225,-0.054061573,-0.006872234,-0.00290161,20240202_130807_721
0.8488538,4.6821556,8.603394,-0.050396383,-0.0032070426,-0.0016798794,20240202_130807_723
0.8488538,4.67737,8.5938225,-0.052839845,-0.001985312,-0.00290161,20240202_130807_725
0.84825563,4.720441,8.589037,-0.051618114,-7.6358154E-4,-0.0016798794,20240202_130807_727
0.82013994,4.7252264,8.584251,-0.051618114,0.00290161,-0.0015271631,20240202_130807_729
0.82971126,4.734798,8.579466,-0.04795292,0.0041233404,-0.0015271631,20240202_130807_732
0.82971126,4.7395835,8.584251,-0.046731193,0.0041233404,-0.0015271631,20240202_130807_733
0.82013994,4.720441,8.589037,-0.046731193,0.008857546,-0.003970624,20240202_130807_735
0.8105687,4.6965127,8.589635,-0.043066,0.011301007,-3.0543262E-4,20240202_130807_737
0.79142606,4.6731825,8.589635,-0.038331795,0.011301007,-3.0543262E-4,20240202_130807_741
0.7722835,4.6636114,8.580064,-0.037110064,0.01740966,0.0021380284,20240202_130807_742
0.76271224,4.6492543,8.599206,-0.033444874,0.013744468,0.00580322,20240202_130807_744
0.74835527,4.65404,8.580064,-0.031001411,0.0125227375,0.005955936,20240202_130807_747
0.7579266,4.6731825,8.575278,-0.02855795,0.014966198,0.008399397,20240202_130807_749
0.76271224,4.682754,8.580064,-0.02733622,0.011453724,0.0096211275,20240202_130807_751
0.76749784,4.691727,8.59442,-0.02611449,0.010231993,0.012064588,20240202_130807_753
0.76749784,4.71087,8.603992,-0.02367103,0.012675454,0.013286319,20240202_130807_756
0.76271224,4.706084,8.62792,-0.022449298,0.010231993,0.01572978,20240202_130807_757
0.7579266,4.71087,8.651849,-0.020158553,0.010231993,0.01817324,20240202_130807_759
0.72442704,4.6965127,8.656634,-0.023823744,0.010231993,0.019394971,20240202_130807_761
0.72442704,4.6725845,8.66142,-0.020158553,0.009010263,0.024281893,20240202_130807_764
0.66699934,4.667799,8.632706,-0.020158553,0.007788532,0.025503624,20240202_130807_765
0.66699934,4.6821556,8.637491,-0.016493361,0.0065668016,0.027947085,20240202_130807_768
0.63828546,4.6582274,8.618349,-0.01282817,0.0053450707,0.031612277,20240202_130807_770
0.6239285,4.65404,8.599805,-0.01160644,4.5814895E-4,0.03283401,20240202_130807_772
0.61914283,4.6396832,8.590233,-0.007941248,-0.001985312,0.035277467,20240202_130807_774
0.6239285,4.625326,8.599805,-0.005497787,-0.0032070426,0.035430185,20240202_130807_776
0.6334998,4.615755,8.618947,-0.0018325958,-0.0032070426,0.039095376,20240202_130807_779
0.6430711,4.615755,8.60459,6.1086525E-4,-0.0067195175,0.040317107,20240202_130807_780
0.6478567,4.5966125,8.590233,4.5814895E-4,-0.007941248,0.042760566,20240202_130807_783
0.65264237,4.610969,8.60459,0.0016798794,-0.009162978,0.04520403,20240202_130807_785
0.65264237,4.610969,8.6141615,0.0053450707,-0.0067195175,0.04520403,20240202_130807_787
0.6622137,4.610969,8.599805,0.007788532,-0.0067195175,0.047647487,20240202_130807_790
0.6622137,4.610969,8.609376,0.0065668016,-0.005497787,0.04520403,20240202_130807_792
0.65264237,4.5918264,8.585447,0.010231993,-0.0030543262,0.04642576,20240202_130807_793
0.6622137,4.587041,8.60459,0.007788532,-0.005497787,0.04520403,20240202_130807_796
0.66699934,4.5918264,8.60459,0.009010263,0.0016798794,0.04642576,20240202_130807_798
0.67178494,4.5966125,8.60459,0.011453724,0.00290161,0.04642576,20240202_130807_800
0.6861419,4.5966125,8.590233,0.010231993,-6.1086525E-4,0.04520403,20240202_130807_802
0.69092757,4.57747,8.571091,0.010231993,0.0016798794,0.04642576,20240202_130807_804
0.69092757,4.5726843,8.571091,0.010231993,0.00290161,0.04520403,20240202_130807_806
0.68135625,4.57747,8.556734,0.009010263,0.00290161,0.04520403,20240202_130807_808
0.7052845,4.5678983,8.56152,0.0065668016,4.5814895E-4,0.04642576,20240202_130807_811
0.69571316,4.57747,8.56152,0.0041233404,-7.6358154E-4,0.04520403,20240202_130807_813
0.7004988,4.5918264,8.556734,0.0016798794,-0.0030543262,0.04520403,20240202_130807_815
0.7052845,4.615755,8.566305,-0.001985312,-0.0030543262,0.043982297,20240202_130807_817
0.71007013,4.610969,8.580662,-0.009162978,-0.004276057,0.04138612,20240202_130807_819
0.7292127,4.634897,8.584849,-0.01160644,-0.009162978,0.03894266,20240202_130807_821
0.7292127,4.634897,8.584849,-0.015271631,-0.004428773,0.035277467,20240202_130807_823
0.738784,4.6301117,8.570493,-0.018936822,-0.004428773,0.035277467,20240202_130807_826
0.7435696,4.6205406,8.580064,-0.026267206,-0.01038471,0.03283401,20240202_130807_828
0.77706915,4.6205406,8.575278,-0.025045475,-0.009162978,0.031612277,20240202_130807_830
0.78664047,4.6205406,8.556135,-0.02977968,-0.008093964,0.03023783,20240202_130807_832
0.8009974,4.6205406,8.55135,-0.033444874,-0.01160644,0.0290161,20240202_130807_834
0.79142606,4.6492543,8.546564,-0.037110064,-0.01160644,0.027794369,20240202_130807_836
0.8105687,4.668397,8.5322075,-0.040775254,-0.015271631,0.025350908,20240202_130807_838
0.7962117,4.682754,8.541779,-0.043218717,-0.017715093,0.024129177,20240202_130807_840
0.80578303,4.658826,8.556135,-0.04810564,-0.015271631,0.022907447,20240202_130807_843
0.7818548,4.6301117,8.59442,-0.04932737,-0.016493361,0.02031127,20240202_130807_845
0.76749784,4.5918264,8.603992,-0.05177083,-0.0154243475,0.019089539,20240202_130807_847
0.77706915,4.5631127,8.608778,-0.05421429,-0.011759156,0.021533,20240202_130807_849
0.7579266,4.558327,8.603992,-0.057726767,-0.014202617,0.02031127,20240202_130807_852
0.77706915,4.5631127,8.566305,-0.057726767,-0.017715093,0.02275473,20240202_130807_854
0.79142606,4.5535417,8.560922,-0.057726767,-0.018936822,0.02275473,20240202_130807_856
0.77706915,4.5726843,8.5423765,-0.056505036,-0.021380283,0.02275473,20240202_130807_858
0.79142606,4.5918264,8.55135,-0.056505036,-0.029932396,0.026419923,20240202_130807_860
0.78664047,4.5822554,8.565707,-0.056505036,-0.029932396,0.02397646,20240202_130807_862
0.79142606,4.615755,8.575278,-0.054061573,-0.032375857,0.026419923,20240202_130807_865
0.79142606,4.6301117,8.613564,-0.052839845,-0.03848451,0.026419923,20240202_130807_867
0.7962117,4.653442,8.618349,-0.051618114,-0.03604105,0.02397646,20240202_130807_869
0.80578303,4.6438704,8.618349,-0.051618114,-0.03970624,0.02397646,20240202_130807_871
0.80578303,4.6486564,8.603992,-0.051618114,-0.043218717,0.02031127,20240202_130807_873
0.8153543,4.67737,8.603992,-0.04917465,-0.04444045,0.02031127,20240202_130807_875
0.8249256,4.6582274,8.623135,-0.046731193,-0.04444045,0.01786781,20240202_130807_877
0.82971126,4.6582274,8.613564,-0.043066,-0.046883907,0.01786781,20240202_130807_880
0.84406817,4.663013,8.623135,-0.04062254,-0.04810564,0.014202617,20240202_130807_881
0.8488538,4.663013,8.623135,-0.036957346,-0.04810564,0.014202617,20240202_130807_884
0.8536395,4.663013,8.627322,-0.033292156,-0.045662176,0.015577064,20240202_130807_886
0.8679964,4.653442,8.636893,-0.030848695,-0.045662176,0.0143553335,20240202_130807_888
0.8679964,4.6582274,8.612965,-0.027183503,-0.04444045,0.0143553335,20240202_130807_890
0.8769695,4.6582274,8.636893,-0.021227567,-0.038331795,0.011911872,20240202_130807_892
0.90089774,4.663013,8.636893,-0.016340645,-0.039553523,0.0143553335,20240202_130807_897
0.910469,4.6725845,8.627322,-0.012675454,-0.038331795,0.013286319,20240202_130807_899
0.9200403,4.6725845,8.603394,-0.009010263,-0.033444874,0.01450805,20240202_130807_900
0.91525465,4.667799,8.612965,-0.0053450707,-0.032223143,0.01450805,20240202_130807_901
0.9296116,4.653442,8.612965,-0.00290161,-0.032223143,0.013286319,20240202_130807_903
0.910469,4.663013,8.617751,7.6358154E-4,-0.026267206,0.01572978,20240202_130807_905
0.91525465,4.65404,8.5938225,0.001985312,-0.023823744,0.01450805,20240202_130807_908
0.92482597,4.6492543,8.584251,0.0067195175,-0.026267206,0.01572978,20240202_130807_910
0.910469,4.634897,8.546564,0.01038471,-0.025045475,0.014660766,20240202_130807_911
0.910469,4.634897,8.55135,0.009162978,-0.023823744,0.014660766,20240202_130807_913
0.91106725,4.615755,8.5322075,0.009162978,-0.02855795,0.015882496,20240202_130807_916
0.9056834,4.6492543,8.536993,0.01160644,-0.026267206,0.015882496,20240202_130807_918
0.9056834,4.658826,8.560323,0.01038471,-0.025045475,0.014660766,20240202_130807_920
0.91525465,4.6492543,8.536395,0.008093964,-0.02855795,0.01450805,20240202_130807_922
0.91525465,4.668397,8.545966,0.0056505036,-0.027488936,0.013286319,20240202_130807_924
0.92482597,4.668397,8.565108,0.004428773,-0.021380283,0.012064588,20240202_130807_926
0.9343972,4.6636114,8.550752,0.001985312,-0.025045475,0.010842858,20240202_130807_929
0.9056834,4.658826,8.545966,7.6358154E-4,-0.025045475,0.0096211275,20240202_130807_931
0.9056834,4.6396832,8.546564,7.6358154E-4,-0.020158553,0.005955936,20240202_130807_934
0.9200403,4.6396832,8.541181,-0.0016798794,-0.023823744,0.005955936,20240202_130807_935
0.9200403,4.668397,8.545966,-0.00290161,-0.027488936,0.0035124752,20240202_130807_938
0.9296116,4.668397,8.5220375,-0.0041233404,-0.023823744,0.0010690142,20240202_130807_940
0.910469,4.668397,8.560323,-0.009010263,-0.025045475,-1.5271631E-4,20240202_130807_942
0.9296116,4.658826,8.555537,-0.009010263,-0.025045475,-0.0038179078,20240202_130807_946
0.92482597,4.6492543,8.569894,-0.0125227375,-0.025045475,-0.007483099,20240202_130807_947
0.8967103,4.6301117,8.580064,-0.013744468,-0.022602014,-0.010079277,20240202_130807_949
0.8919246,4.610969,8.570493,-0.016187929,-0.023823744,-0.0125227375,20240202_130807_950
0.8775677,4.601398,8.603992,-0.016187929,-0.020158553,-0.013744468,20240202_130807_953
0.8967103,4.587041,8.580064,-0.01863139,-0.018936822,-0.014966198,20240202_130807_955
0.887139,4.5726843,8.589635,-0.016187929,-0.015271631,-0.016187929,20240202_130807_957
0.88235337,4.5631127,8.584849,-0.016187929,-0.01160644,-0.016187929,20240202_130807_959
0.8967103,4.5535417,8.608778,-0.014966198,-0.01160644,-0.017256944,20240202_130807_961
0.8967103,4.558327,8.62792,-0.016187929,-0.009162978,-0.014813482,20240202_130807_964
0.8919246,4.5822554,8.613564,-0.016187929,-0.0056505036,-0.017256944,20240202_130807_966
0.9062816,4.5966125,8.584849,-0.01740966,-0.006872234,-0.018478673,20240202_130807_970
0.8919246,4.6061835,8.608778,-0.01740966,-0.004428773,-0.017256944,20240202_130807_971
0.887139,4.5918264,8.608778,-0.01863139,4.5814895E-4,-0.020922136,20240202_130807_972
0.87278205,4.5966125,8.599206,-0.016187929,0.00290161,-0.018478673,20240202_130807_974
0.8775677,4.5726843,8.632706,-0.014966198,0.00290161,-0.019700404,20240202_130807_976
0.8632108,4.5535417,8.618349,-0.013744468,0.0065668016,-0.019700404,20240202_130807_979
0.8392825,4.5631127,8.637491,-0.014966198,0.0041233404,-0.018478673,20240202_130807_980
0.82971126,4.5487556,8.623135,-0.016187929,0.0041233404,-0.019700404,20240202_130807_983
0.82013994,4.5678983,8.623135,-0.014966198,4.5814895E-4,-0.019700404,20240202_130807_985
0.8105687,4.5535417,8.613564,-0.014966198,4.5814895E-4,-0.022143865,20240202_130807_989
0.79142606,4.5631127,8.618349,-0.013744468,4.5814895E-4,-0.020922136,20240202_130807_990
0.7818548,4.5631127,8.613564,-0.013744468,-7.6358154E-4,-0.020922136,20240202_130807_991
0.7962117,4.5678983,8.623135,-0.013744468,-0.001985312,-0.020922136,20240202_130807_993
0.79142606,4.558327,8.642277,-0.0125227375,-7.6358154E-4,-0.020922136,20240202_130807_996
0.7818548,4.5535417,8.656634,-0.010079277,-7.6358154E-4,-0.019700404,20240202_130807_997
0.77706915,4.5726843,8.647063,-0.0076358155,-0.001985312,-0.018478673,20240202_130808_000
0.7818548,4.5912285,8.642277,-0.008857546,4.5814895E-4,-0.023365596,20240202_130808_002
0.7722835,4.586443,8.66142,-0.005192355,-7.6358154E-4,-0.019700404,20240202_130808_004
0.76749784,4.5918264,8.623135,-0.003970624,4.5814895E-4,-0.020922136,20240202_130808_006
0.7531409,4.6007996,8.637491,-4.5814895E-4,-0.001985312,-0.020922136,20240202_130808_010
0.7531409,4.587041,8.642277,9.162979E-4,-0.005497787,-0.020922136,20240202_130808_010
0.7579266,4.5918264,8.632706,0.0032070426,-0.0067195175,-0.020922136,20240202_130808_012
0.76271224,4.57747,8.608778,0.004428773,-0.01160644,-0.019700404,20240202_130808_016
0.738784,4.5822554,8.618349,0.006872234,-0.014049901,-0.019700404,20240202_130808_019
0.7292127,4.5678983,8.618947,0.006872234,-0.016493361,-0.017256944,20240202_130808_020
0.73399836,4.5678983,8.618947,0.008093964,-0.017715093,-0.017256944,20240202_130808_021
0.7579266,4.586443,8.642876,0.009315695,-0.022449298,-0.013591751,20240202_130808_024
0.74835527,4.6055856,8.652447,0.010537425,-0.02367103,-0.012370021,20240202_130808_026
0.74835527,4.6007996,8.647661,0.010537425,-0.02367103,-0.012370021,20240202_130808_028
0.7435696,4.6151567,8.633304,0.006872234,-0.02611449,-0.00992656,20240202_130808_030
0.7579266,4.6295137,8.632706,0.009315695,-0.02611449,-0.00992656,20240202_130808_032
0.7579266,4.6438704,8.637491,0.009315695,-0.024892759,-0.00870483,20240202_130808_034
0.7435696,4.619942,8.6141615,0.009315695,-0.02367103,-0.007483099,20240202_130808_036
0.76749784,4.6055856,8.623733,0.006872234,-0.02611449,-0.0062613687,20240202_130808_039
0.74835527,4.6007996,8.623733,0.006872234,-0.02367103,-0.0050396384,20240202_130808_040
0.76271224,4.5912285,8.60459,0.006872234,-0.022449298,-0.0025961774,20240202_130808_043
0.7722835,4.5822554,8.56152,0.0056505036,-0.021227567,-0.0013744468,20240202_130808_045
0.76749784,4.5678983,8.566305,0.004428773,-0.020158553,0.0010690142,20240202_130808_047
0.77706915,4.57747,8.575876,0.0032070426,-0.020158553,0.0022907446,20240202_130808_049
0.7579266,4.5678983,8.575876,0.001985312,-0.015271631,0.0047342055,20240202_130808_051
0.76271224,4.587041,8.590233,7.6358154E-4,-0.01160644,0.005955936,20240202_130808_053
0.76749784,4.5678983,8.585447,7.6358154E-4,-0.009162978,0.008399397,20240202_130808_056
0.7818548,4.5678983,8.575876,-0.0016798794,-0.005497787,0.0096211275,20240202_130808_057
0.79142606,4.5822554,8.585447,0.0018325958,-6.1086525E-4,0.012217305,20240202_130808_060
0.7962117,4.587041,8.585447,-0.0018325958,-0.0018325958,0.013286319,20240202_130808_062
0.78664047,4.610969,8.575876,6.1086525E-4,0.0065668016,0.013439035,20240202_130808_064
0.80578303,4.619942,8.584849,-6.1086525E-4,0.0018325958,0.019547688,20240202_130808_066
0.7962117,4.619942,8.584849,-0.0030543262,0.0065668016,0.019547688,20240202_130808_069
0.7722835,4.6295137,8.585447,-6.1086525E-4,0.0053450707,0.02076942,20240202_130808_072
0.76749784,4.6205406,8.571091,-0.0030543262,0.0041233404,0.02076942,20240202_130808_073
0.76271224,4.615755,8.575876,-0.0067195175,0.0041233404,0.023060163,20240202_130808_075
0.76271224,4.6061835,8.585447,-0.007941248,0.0030543262,0.025503624,20240202_130808_077
0.76271224,4.6055856,8.595019,-0.007941248,0.0030543262,0.023060163,20240202_130808_079
0.76271224,4.6205406,8.580662,-0.009162978,-6.1086525E-4,0.025503624,20240202_130808_081
0.78664047,4.653442,8.575278,-0.009162978,-0.0018325958,0.023060163,20240202_130808_083
0.7962117,4.653442,8.575278,-0.01038471,-0.005497787,0.023060163,20240202_130808_085
0.79142606,4.6725845,8.55135,-0.013897184,-0.009162978,0.021838432,20240202_130808_089
0.8009974,4.6821556,8.565707,-0.013897184,-0.01038471,0.019394971,20240202_130808_090
0.82971126,4.667799,8.560922,-0.017562376,-0.015271631,0.020616703,20240202_130808_092
0.8344969,4.653442,8.560922,-0.018784106,-0.01282817,0.01695151,20240202_130808_094
0.8344969,4.6295137,8.565707,-0.022449298,-0.016493361,0.016798794,20240202_130808_097
0.8344969,4.624728,8.584849,-0.02367103,-0.017715093,0.013133603,20240202_130808_098
0.8249256,4.5966125,8.56152,-0.02733622,-0.017715093,0.013133603,20240202_130808_101
0.8488538,4.5822554,8.556734,-0.02855795,-0.018936822,0.0106901415,20240202_130808_103
0.84406817,4.587041,8.571091,-0.02855795,-0.021380283,0.011911872,20240202_130808_106
0.8488538,4.5822554,8.571091,-0.032070424,-0.022602014,0.0106901415,20240202_130808_107
0.8488538,4.5822554,8.556734,-0.033292156,-0.023823744,0.009468411,20240202_130808_110
0.8536395,4.5822554,8.547162,-0.034513887,-0.026267206,0.0106901415,20240202_130808_112
0.8632108,4.601398,8.560922,-0.03573562,-0.027488936,0.009468411,20240202_130808_114
0.87218386,4.601398,8.575278,-0.03573562,-0.026267206,0.008246681,20240202_130808_116
0.8769695,4.587041,8.584849,-0.034513887,-0.025045475,0.0070249503,20240202_130808_118
0.8865408,4.587041,8.584849,-0.03573562,-0.022602014,0.004581489,20240202_130808_120
0.8961121,4.596014,8.599206,-0.034513887,-0.022602014,0.0070249503,20240202_130808_123
0.8913264,4.596014,8.59442,-0.033292156,-0.023823744,0.004581489,20240202_130808_125
0.90089774,4.596014,8.59442,-0.033292156,-0.022602014,0.004581489,20240202_130808_126
0.910469,4.6007996,8.603992,-0.032070424,-0.020158553,0.004581489,20240202_130808_129
0.8961121,4.6151567,8.599206,-0.030848695,-0.018936822,0.0033597588,20240202_130808_130
0.8817552,4.596014,8.608778,-0.029626964,-0.016493361,0.0033597588,20240202_130808_133
0.8817552,4.586443,8.618349,-0.024892759,-0.01282817,0.0033597588,20240202_130808_136
0.8769695,4.586443,8.618349,-0.02367103,-0.015271631,0.004581489,20240202_130808_137
0.90089774,4.581657,8.62792,-0.020005837,-0.014049901,0.00580322,20240202_130808_139
0.8913264,4.5768714,8.618349,-0.017562376,-0.015271631,0.0071776668,20240202_130808_141
0.8769695,4.5912285,8.613564,-0.013897184,-0.014049901,0.008399397,20240202_130808_144
0.87218386,4.610371,8.637491,-0.013897184,-0.018936822,0.0071776668,20240202_130808_146
0.8865408,4.6295137,8.642277,-0.009010263,-0.021380283,0.0071776668,20240202_130808_148
0.8673982,4.6438704,8.651849,-0.007788532,-0.020158553,0.005955936,20240202_130808_150
0.8769695,4.6486564,8.66142,-0.0053450707,-0.022449298,0.008399397,20240202_130808_152
0.87218386,4.6486564,8.666205,-0.0016798794,-0.021227567,0.0071776668,20240202_130808_154
0.86261255,4.6342993,8.6757765,7.6358154E-4,-0.018936822,0.0071776668,20240202_130808_157
0.86261255,4.6151567,8.680562,7.6358154E-4,-0.021380283,0.0071776668,20240202_130808_158
0.86261255,4.6007996,8.656634,0.0032070426,-0.020158553,0.0096211275,20240202_130808_160
0.87218386,4.596014,8.642277,0.0056505036,-0.016493361,0.0096211275,20240202_130808_163
0.8817552,4.6007996,8.608778,0.008093964,-0.018936822,0.009773844,20240202_130808_165
0.8865408,4.586443,8.599206,0.008093964,-0.017715093,0.010995574,20240202_130808_167
0.87218386,4.610371,8.584849,0.010537425,-0.018936822,0.009773844,20240202_130808_169
0.8865408,4.5822554,8.584849,0.01282817,-0.017715093,0.009773844,20240202_130808_172
0.8865408,4.587041,8.59442,0.01282817,-0.018784106,0.010995574,20240202_130808_174
0.8961121,4.6055856,8.584849,0.015271631,-0.015271631,0.008552114,20240202_130808_176
0.910469,4.601398,8.565707,0.015271631,-0.015271631,0.007330383,20240202_130808_179
0.9296116,4.610969,8.570493,0.014202617,-0.015271631,0.004886922,20240202_130808_181
0.92482597,4.6342993,8.584849,0.012980887,-0.0067195175,0.002443461,20240202_130808_182
0.9200403,4.6295137,8.580064,0.010537425,-0.01160644,-0.0012217305,20240202_130808_184
0.9200403,4.6295137,8.59442,0.008093964,-0.005497787,-0.0036651916,20240202_130808_186
0.92482597,4.6055856,8.608778,0.0056505036,0.0030543262,-0.0061086523,20240202_130808_189
0.9200403,4.57747,8.59442,0.0032070426,-6.1086525E-4,-0.00992656,20240202_130808_191
0.9343972,4.5631127,8.599206,0.001985312,-6.1086525E-4,-0.011148291,20240202_130808_193
0.9343972,4.5391846,8.584849,-0.0016798794,0.009010263,-0.014813482,20240202_130808_196
0.9391829,4.54397,8.546564,7.6358154E-4,0.0065668016,-0.012370021,20240202_130808_197
0.9487542,4.54397,8.546564,-0.0016798794,0.0016798794,-0.016035212,20240202_130808_200
0.9487542,4.5391846,8.541779,-0.0016798794,0.007788532,-0.014813482,20240202_130808_202
0.95832545,4.558327,8.5322075,-0.0041233404,0.007788532,-0.016035212,20240202_130808_204
0.95832545,4.5678983,8.556135,-0.0065668016,0.0016798794,-0.017256944,20240202_130808_206
0.9631111,4.5966125,8.570493,-0.0065668016,0.0065668016,-0.018478673,20240202_130808_209
0.95353985,4.610969,8.570493,-0.008857546,0.007788532,-0.020922136,20240202_130808_210
0.9343972,4.6055856,8.589635,-0.014966198,0.0065668016,-0.020922136,20240202_130808_213
0.91525465,4.6055856,8.599206,-0.01740966,0.007788532,-0.025809057,20240202_130808_214
0.91525465,4.5912285,8.603992,-0.01985312,0.009010263,-0.027030786,20240202_130808_217
0.887139,4.5678983,8.59442,-0.022296581,0.007788532,-0.028405234,20240202_130808_219
0.8679964,4.5487556,8.589635,-0.024740042,0.0065668016,-0.029626964,20240202_130808_221
0.87278205,4.5487556,8.584849,-0.027183503,0.0041233404,-0.030848695,20240202_130808_223
0.8679964,4.5391846,8.575876,-0.030848695,4.5814895E-4,-0.030848695,20240202_130808_226
0.8536395,4.5535417,8.551949,-0.03191771,-0.0032070426,-0.032070424,20240202_130808_228
0.8344969,4.5535417,8.556734,-0.03680463,-0.006872234,-0.032070424,20240202_130808_229
0.8153543,4.5678983,8.551949,-0.0355829,-0.01282817,-0.033292156,20240202_130808_232
0.8153543,4.5678983,8.551949,-0.038026363,-0.016493361,-0.032223143,20240202_130808_233
0.80578303,4.57747,8.566305,-0.041691553,-0.017715093,-0.031001411,20240202_130808_235
0.7962117,4.57747,8.575876,-0.04046982,-0.025045475,-0.02977968,20240202_130808_238
0.8009974,4.5822554,8.603992,-0.045356743,-0.028710667,-0.02977968,20240202_130808_240
0.79142606,4.5918264,8.608778,-0.045356743,-0.027488936,-0.02733622,20240202_130808_243
0.76749784,4.6151567,8.632706,-0.047800206,-0.03481932,-0.024892759,20240202_130808_245
0.7579266,4.619942,8.647063,-0.046578474,-0.03604105,-0.022449298,20240202_130808_246
0.7579266,4.6055856,8.618947,-0.046578474,-0.03604105,-0.022449298,20240202_130808_249
0.738784,4.619942,8.623733,-0.047800206,-0.039553523,-0.018784106,20240202_130808_250
0.73399836,4.6342993,8.632706,-0.045356743,-0.041996986,-0.015118915,20240202_130808_253
0.7292127,4.6295137,8.632706,-0.042913284,-0.043218717,-0.012675454,20240202_130808_255
0.7292127,4.6342993,8.62792,-0.04046982,-0.043218717,-0.010231993,20240202_130808_258
0.73399836,4.639085,8.647063,-0.036957346,-0.039553523,-0.0065668016,20240202_130808_260
0.73399836,4.6295137,8.632706,-0.034513887,-0.041996986,-0.0065668016,20240202_130808_261
0.738784,4.6438704,8.66142,-0.029626964,-0.037110064,-0.003970624,20240202_130808_264
0.7435696,4.6486564,8.685348,-0.024740042,-0.032223143,-0.0015271631,20240202_130808_266
0.73399836,4.6342993,8.6757765,-0.023518313,-0.031001411,-3.0543262E-4,20240202_130808_269
0.73399836,4.624728,8.647063,-0.01985312,-0.028710667,0.0021380284,20240202_130808_270
0.7579266,4.6151567,8.656634,-0.015118915,-0.021380283,0.0035124752,20240202_130808_273
0.76749784,4.610371,8.642277,-0.012675454,-0.020158553,0.0071776668,20240202_130808_274
0.76271224,4.6007996,8.62792,-0.009010263,-0.020158553,0.0071776668,20240202_130808_277
0.77706915,4.596014,8.637491,-0.007788532,-0.017715093,0.0096211275,20240202_130808_280
0.8009974,4.5822554,8.608778,-0.0041233404,-0.01160644,0.010842858,20240202_130808_281
0.8153543,4.5535417,8.618349,-0.00290161,-0.015271631,0.012064588,20240202_130808_283
0.8249256,4.5487556,8.632706,-0.00290161,-0.01038471,0.013286319,20240202_130808_285
0.8344969,4.5391846,8.647063,-0.0030543262,-0.005497787,0.01572978,20240202_130808_288
0.82013994,4.5481577,8.647063,-0.0018325958,-0.007941248,0.01572978,20240202_130808_289
0.82013994,4.5391846,8.637491,-0.0030543262,-0.004276057,0.01572978,20240202_130808_292
0.8392825,4.5391846,8.632706,-0.0018325958,6.1086525E-4,0.015882496,20240202_130808_294
0.8536395,4.5296135,8.618349,-0.0018325958,-0.0030543262,0.01450805,20240202_130808_296
0.8536395,4.505685,8.60459,-0.0018325958,-0.0018325958,0.013286319,20240202_130808_298
0.8679964,4.5152564,8.618349,-6.1086525E-4,0.0053450707,0.013439035,20240202_130808_301
0.88235337,4.505685,8.603992,-6.1086525E-4,-0.0030543262,0.012064588,20240202_130808_303
0.88235337,4.510471,8.618349,-0.0016798794,-0.004276057,0.012064588,20240202_130808_304
0.9062816,4.496114,8.62792,0.0018325958,0.00290161,0.012217305,20240202_130808_307
0.8967103,4.505685,8.613564,-0.0016798794,-0.0030543262,0.0096211275,20240202_130808_309
0.8919246,4.5248275,8.647063,-0.0016798794,-0.004276057,0.010842858,20240202_130808_313
0.88235337,4.510471,8.647063,-0.0016798794,-0.004276057,0.0096211275,20240202_130808_314
0.87278205,4.5152564,8.642277,-0.0016798794,-0.009162978,0.008399397,20240202_130808_316
0.87278205,4.520042,8.637491,-4.5814895E-4,-0.01282817,0.008399397,20240202_130808_318
0.8632108,4.520042,8.637491,-4.5814895E-4,-0.014049901,0.008399397,20240202_130808_320
0.8632108,4.5296135,8.618349,-0.00290161,-0.017715093,0.0071776668,20240202_130808_322
0.8679964,4.5391846,8.632706,-4.5814895E-4,-0.023823744,0.0071776668,20240202_130808_324
0.8679964,4.562515,8.66142,-0.0016798794,-0.023823744,0.0071776668,20240202_130808_326
0.85842514,4.543372,8.666205,-4.5814895E-4,-0.024892759,0.0071776668,20240202_130808_329
0.8632108,4.562515,8.666205,7.6358154E-4,-0.024892759,0.0071776668,20240202_130808_331
0.87278205,4.552943,8.685348,7.6358154E-4,-0.022602014,0.0096211275,20240202_130808_333
0.8679964,4.529015,8.680562,0.004428773,-0.022602014,0.0096211275,20240202_130808_334
0.8344969,4.5481577,8.699705,0.004428773,-0.02367103,0.010842858,20240202_130808_337
0.8344969,4.557729,8.6757765,0.009315695,-0.022449298,0.013439035,20240202_130808_339
0.8249256,4.572086,8.642277,0.015271631,-0.021227567,0.015882496,20240202_130808_341
0.8344969,4.5768714,8.632706,0.018936822,-0.02367103,0.015882496,20240202_130808_343
0.8344969,4.581657,8.632706,0.022602014,-0.02367103,0.017104227,20240202_130808_346
0.8392825,4.6055856,8.618349,0.023823744,-0.02611449,0.017104227,20240202_130808_348
0.8488538,4.6151567,8.618349,0.023823744,-0.031001411,0.017104227,20240202_130808_349
0.8392825,4.624728,8.632706,0.025045475,-0.02733622,0.017104227,20240202_130808_352
0.8488538,4.6342993,8.623135,0.023823744,-0.02367103,0.015882496,20240202_130808_354
0.82971126,4.639085,8.632706,0.022602014,-0.02733622,0.013439035,20240202_130808_356
0.82013994,4.6342993,8.632706,0.018936822,-0.02367103,0.010995574,20240202_130808_358
0.82971126,4.6151567,8.613564,0.0154243475,-0.02367103,0.009773844,20240202_130808_361
0.82971126,4.601398,8.584849,0.0154243475,-0.021227567,0.008552114,20240202_130808_362
0.8344969,4.5822554,8.565707,0.014202617,-0.021227567,0.009773844,20240202_130808_364
0.8488538,4.5535417,8.556734,0.010537425,-0.017715093,0.00870483,20240202_130808_368
0.87278205,4.5535417,8.56152,0.010537425,-0.017715093,0.011148291,20240202_130808_370
0.8775677,4.558327,8.537591,0.009315695,-0.018936822,0.012370021,20240202_130808_373
0.8775677,4.558327,8.547162,0.007941248,-0.014202617,0.012370021,20240202_130808_374
0.887139,4.5678983,8.56152,0.0056505036,-0.011759156,0.011148291,20240202_130808_376
0.90089774,4.57747,8.55135,0.004428773,-0.010537425,0.011148291,20240202_130808_378
0.9056834,4.6061835,8.541779,0.0032070426,-0.009315695,0.008552114,20240202_130808_380
0.9056834,4.6205406,8.541779,7.6358154E-4,-0.008093964,0.008552114,20240202_130808_382
0.9200403,4.610969,8.55135,-0.0016798794,-0.006872234,0.007330383,20240202_130808_384
0.9391829,4.6151567,8.565707,-0.0053450707,-0.004428773,0.0061086523,20240202_130808_386
0.9200403,4.596014,8.584849,-0.007788532,-7.6358154E-4,0.004886922,20240202_130808_388
0.9296116,4.5912285,8.59442,-0.011453724,4.5814895E-4,0.0036651916,20240202_130808_390
0.92482597,4.572086,8.603992,-0.015118915,4.5814895E-4,0.0036651916,20240202_130808_393
0.92482597,4.5726843,8.584849,-0.016340645,-7.6358154E-4,0.002443461,20240202_130808_395
0.92482597,4.5678983,8.556135,-0.018784106,-7.6358154E-4,0.0036651916,20240202_130808_397
0.9296116,4.57747,8.536993,-0.017562376,-0.001985312,0.0036651916,20240202_130808_400
0.9200403,4.5535417,8.523234,-0.020005837,-0.0032070426,0.0036651916,20240202_130808_401
0.9056834,4.5726843,8.546564,-0.018784106,-0.006872234,0.002443461,20240202_130808_404
0.9343972,4.57747,8.556135,-0.018784106,-0.008093964,0.0012217305,20240202_130808_406
0.9296116,4.587041,8.575278,-0.016340645,-0.004428773,0.0012217305,20240202_130808_408
0.94396853,4.5912285,8.584849,-0.017562376,-0.009315695,-0.0,20240202_130808_410
0.9343972,4.5912285,8.623135,-0.017562376,-0.004428773,-0.0,20240202_130808_413
0.9487542,4.610371,8.632706,-0.017562376,-0.0032070426,-0.0012217305,20240202_130808_415
0.9487542,4.610371,8.642277,-0.015118915,-0.006872234,-0.002443461,20240202_130808_416
0.9391829,4.639085,8.62792,-0.015118915,-0.0056505036,-0.0036651916,20240202_130808_419
0.9200403,4.624728,8.613564,-0.013897184,-0.0056505036,-0.0061086523,20240202_130808_421
0.91525465,4.6295137,8.59442,-0.012675454,-0.008093964,-0.007330383,20240202_130808_423
0.910469,4.6007996,8.59442,-0.010231993,-0.009315695,-0.007330383,20240202_130808_424
0.91525465,4.596014,8.613564,-0.0065668016,-0.0056505036,-0.007330383,20240202_130808_427
0.9056834,4.596014,8.608778,-0.0053450707,-0.011759156,-0.007330383,20240202_130808_429
0.90089774,4.5912285,8.637491,-0.0053450707,-0.0154243475,-0.007330383,20240202_130808_432
0.8961121,4.6007996,8.651849,-0.0016798794,-0.009315695,-0.0061086523,20240202_130808_434
0.8913264,4.6055856,8.642277,-0.0016798794,-0.010537425,-0.008552114,20240202_130808_437
0.8913264,4.6055856,8.642277,-4.5814895E-4,-0.014202617,-0.0061086523,20240202_130808_438
0.8865408,4.6055856,8.632706,7.6358154E-4,-0.0056505036,-0.007330383,20240202_130808_441
0.8961121,4.6007996,8.618349,0.004428773,-0.006872234,-0.0061086523,20240202_130808_442
0.8769695,4.610371,8.613564,0.0056505036,-0.006872234,-0.007330383,20240202_130808_444
0.8913264,4.5768714,8.59442,0.006872234,-0.001985312,-0.005955936,20240202_130808_446
0.90089774,4.572086,8.608778,0.008093964,4.5814895E-4,-0.005955936,20240202_130808_449
0.8961121,4.562515,8.599206,0.009315695,0.0041233404,-0.0047342055,20240202_130808_451
0.8865408,4.5481577,8.6141615,0.010537425,0.007788532,-0.0035124752,20240202_130808_453
0.8961121,4.54397,8.595019,0.011759156,0.011301007,-0.0035124752,20240202_130808_455
0.8775677,4.54397,8.599805,0.012980887,0.013744468,-0.0035124752,20240202_130808_457
0.8913264,4.54397,8.599805,0.01282817,0.016187929,-0.0022907446,20240202_130808_460
0.8961121,4.5487556,8.599805,0.01282817,0.01863139,-0.0035124752,20240202_130808_461
0.8961121,4.54397,8.599805,0.01282817,0.023518313,-0.0035124752,20240202_130808_464
0.8961121,4.552943,8.599805,0.01282817,0.023518313,-0.0047342055,20240202_130808_467
0.91525465,4.543372,8.608778,0.01160644,0.024740042,-0.0035124752,20240202_130808_467
0.9296116,4.538586,8.618349,0.006872234,0.025961773,-0.0047342055,20240202_130808_470
0.9056834,4.552943,8.62792,0.007941248,0.029626964,-0.005955936,20240202_130808_473
0.91525465,4.557729,8.623135,0.001985312,0.025961773,-0.005955936,20240202_130808_474
0.91525465,4.538586,8.608778,7.6358154E-4,0.027183503,-0.008399397,20240202_130808_477
0.91525465,4.5487556,8.584849,-0.0053450707,0.024740042,-0.008552114,20240202_130808_480
0.90089774,4.5391846,8.590233,-0.007788532,0.02107485,-0.009773844,20240202_130808_481
0.9062816,4.5248275,8.556734,-0.011453724,0.016187929,-0.012217305,20240202_130808_483
0.910469,4.5296135,8.56152,-0.015118915,0.0125227375,-0.014660766,20240202_130808_485
0.9056834,4.520042,8.571091,-0.01740966,0.010079277,-0.014660766,20240202_130808_487
0.910469,4.5248275,8.56152,-0.022296581,0.005192355,-0.016035212,20240202_130808_490
0.910469,4.534399,8.56152,-0.024740042,0.0015271631,-0.014813482,20240202_130808_491
0.91525465,4.54397,8.585447,-0.027183503,0.0015271631,-0.016035212,20240202_130808_494
0.910469,4.562515,8.59442,-0.029626964,3.0543262E-4,-0.017256944,20240202_130808_495
0.92482597,4.5673003,8.589635,-0.030848695,-0.0056505036,-0.017256944,20240202_130808_499
0.8961121,4.5678983,8.575876,-0.033292156,-0.0032070426,-0.018478673,20240202_130808_501
0.8961121,4.581657,8.584849,-0.032070424,-7.6358154E-4,-0.018478673,20240202_130808_502
0.8913264,4.5487556,8.590233,-0.034513887,-0.0032070426,-0.019700404,20240202_130808_504
0.88235337,4.5391846,8.580662,-0.033292156,-0.001985312,-0.018478673,20240202_130808_506
0.8865408,4.572086,8.599805,-0.033292156,-0.006872234,-0.016035212,20240202_130808_509
0.8817552,4.5768714,8.580662,-0.032070424,-0.006872234,-0.018478673,20240202_130808_510
0.90089774,4.6342993,8.59442,-0.032070424,-0.006872234,-0.017256944,20240202_130808_513
0.8913264,4.6438704,8.59442,-0.033292156,-0.010537425,-0.020922136,20240202_130808_515
0.90089774,4.686941,8.618349,-0.032070424,-0.009315695,-0.020922136,20240202_130808_517
0.910469,4.686941,8.62792,-0.034513887,-0.008093964,-0.020922136,20240202_130808_519
0.8913264,4.691727,8.651849,-0.0355829,-0.006872234,-0.023365596,20240202_130808_521
0.8817552,4.6582274,8.647063,-0.034513887,-9.162979E-4,-0.023365596,20240202_130808_523
0.8817552,4.6342993,8.6757765,-0.033292156,0.0027488936,-0.023365596,20240202_130808_525
0.87218386,4.5912285,8.666205,-0.029626964,0.008857546,-0.023365596,20240202_130808_528
0.8769695,4.596014,8.642277,-0.029626964,0.0125227375,-0.022143865,20240202_130808_530
0.87218386,4.5912285,8.618349,-0.027183503,0.013744468,-0.022143865,20240202_130808_532
0.8578269,4.581657,8.599805,-0.023518313,0.016187929,-0.02076942,20240202_130808_534
0.8488538,4.5912285,8.580662,-0.01985312,0.016187929,-0.02076942,20240202_130808_536
0.8392825,4.572086,8.585447,-0.01740966,0.01863139,-0.019547688,20240202_130808_539
0.82013994,4.5673003,8.599805,-0.014966198,0.01863139,-0.02076942,20240202_130808_540
0.8105687,4.5481577,8.60459,-0.012675454,0.01863139,-0.018325957,20240202_130808_542
0.80578303,4.552943,8.609376,-0.010231993,0.02107485,-0.017104227,20240202_130808_545
0.80578303,4.538586,8.609376,-0.009010263,0.022296581,-0.018325957,20240202_130808_547
0.80578303,4.543372,8.628518,-0.0065668016,0.01740966,-0.014660766,20240202_130808_549
0.79142606,4.552943,8.633304,-0.0065668016,0.01863139,-0.014660766,20240202_130808_551
0.79142606,4.5673003,8.628518,-0.0065668016,0.016187929,-0.012217305,20240202_130808_553
0.78664047,4.5673003,8.662018,-0.0053450707,0.014966198,-0.012217305,20240202_130808_556
0.77706915,4.5768714,8.666803,-0.0053450707,0.016187929,-0.009773844,20240202_130808_558
0.7722835,4.557729,8.695518,-0.0041233404,0.0125227375,-0.007330383,20240202_130808_560
0.76749784,4.572086,8.685946,-4.5814895E-4,0.016187929,-0.0035124752,20240202_130808_562
0.76271224,4.5673003,8.685946,0.001985312,0.016187929,-0.0010690142,20240202_130808_564
0.77706915,4.5673003,8.690732,0.007941248,0.016187929,0.0025961774,20240202_130808_566
0.76271224,4.5673003,8.690732,0.01160644,0.01863139,0.007483099,20240202_130808_569
0.79142606,4.5481577,8.681161,0.016493361,0.01863139,0.00992656,20240202_130808_570
0.78664047,4.538586,8.676374,0.021380283,0.02107485,0.013744468,20240202_130808_573
0.79142606,4.552943,8.681161,0.028710667,0.017562376,0.013744468,20240202_130808_575
0.79142606,4.5481577,8.671589,0.033444874,0.021227567,0.01740966,20240202_130808_577
0.7962117,4.552943,8.671589,0.038331795,0.022449298,0.01863139,20240202_130808_579
0.8009974,4.5481577,8.666803,0.043218717,0.017562376,0.01863139,20240202_130808_581
0.8153543,4.538586,8.647661,0.04810564,0.021227567,0.018784106,20240202_130808_583
0.82013994,4.543372,8.652447,0.050549097,0.022449298,0.017562376,20240202_130808_586
0.82013994,4.572086,8.652447,0.05299256,0.018784106,0.015118915,20240202_130808_588
0.8530413,4.557729,8.642876,0.05421429,0.017562376,0.012675454,20240202_130808_590
0.8530413,4.5673003,8.63809,0.05177083,0.020005837,0.009010263,20240202_130808_592
0.86261255,4.5673003,8.642876,0.04932737,0.017562376,0.007788532,20240202_130808_594
0.8673982,4.5481577,8.657232,0.047036625,0.015118915,0.003970624,20240202_130808_596
0.8578269,4.529015,8.662018,0.04337143,0.018784106,0.0015271631,20240202_130808_598
0.86261255,4.519444,8.63809,0.03970624,0.012675454,-0.0021380284,20240202_130808_601
0.85842514,4.505087,8.6141615,0.03604105,0.011453724,-0.0033597588,20240202_130808_603
0.85842514,4.486542,8.580662,0.03359759,0.010231993,-0.0070249503,20240202_130808_605
0.8775677,4.4721856,8.571091,0.027641652,0.0053450707,-0.008399397,20240202_130808_607
0.8775677,4.4674,8.533403,0.02397646,0.0016798794,-0.008399397,20240202_130808_609
0.8775677,4.4913282,8.5423765,0.021533,0.0016798794,-0.010842858,20240202_130808_611
0.8775677,4.505685,8.547162,0.016646078,-7.6358154E-4,-0.0096211275,20240202_130808_613
0.88235337,4.5008993,8.571091,0.011759156,-0.0056505036,-0.013286319,20240202_130808_616
0.87218386,4.534399,8.571091,0.006872234,-0.001985312,-0.013439035,20240202_130808_617
0.8769695,4.557729,8.590233,0.0032070426,-7.6358154E-4,-0.013439035,20240202_130808_620
0.8769695,4.557729,8.590233,-0.0015271631,-0.0032070426,-0.017104227,20240202_130808_622
0.86261255,4.538586,8.609376,-0.003970624,0.0016798794,-0.017104227,20240202_130808_625
0.8673982,4.5338006,8.585447,-0.006414085,0.0016798794,-0.015882496,20240202_130808_627
0.8632108,4.5338006,8.595019,-0.008857546,0.0016798794,-0.014660766,20240202_130808_629
0.85842514,4.543372,8.580662,-0.008857546,0.00290161,-0.015882496,20240202_130808_631
0.84406817,4.552943,8.599805,-0.008857546,0.0053450707,-0.015882496,20240202_130808_633
0.8392825,4.5673003,8.595019,-0.011301007,0.0041233404,-0.014660766,20240202_130808_635
0.8386843,4.581657,8.609376,-0.0125227375,0.0053450707,-0.015882496,20240202_130808_637
0.8530413,4.5912285,8.60459,-0.010231993,0.009010263,-0.014660766,20240202_130808_639
0.8386843,4.6055856,8.599805,-0.011453724,0.008857546,-0.014660766,20240202_130808_641
0.84825563,4.610371,8.590233,-0.011453724,0.011301007,-0.012217305,20240202_130808_644
0.84347,4.624728,8.590233,-0.009010263,0.016187929,-0.010995574,20240202_130808_645
0.83389866,4.624728,8.595019,-0.009010263,0.01740966,-0.010995574,20240202_130808_648
0.82911307,4.624728,8.585447,-0.0065668016,0.013744468,-0.004886922,20240202_130808_650
0.81954175,4.619942,8.609376,-0.0041233404,0.01985312,-0.0036651916,20240202_130808_652
0.81954175,4.619942,8.595019,-0.00290161,0.01985312,-0.0010690142,20240202_130808_654
0.8147561,4.6295137,8.60459,-4.5814895E-4,0.01863139,1.5271631E-4,20240202_130808_656
0.8147561,4.624728,8.590233,-4.5814895E-4,0.01863139,0.0025961774,20240202_130808_659
0.80997044,4.6342993,8.609376,-6.1086525E-4,0.022296581,0.0050396384,20240202_130808_661
0.8147561,4.6438704,8.590233,0.0018325958,0.022296581,0.0050396384,20240202_130808_663
0.8009974,4.6342993,8.575876,0.0018325958,0.01740966,0.0062613687,20240202_130808_666
0.79142606,4.639085,8.580662,0.004276057,0.01740966,0.007483099,20240202_130808_668
0.79142606,4.624728,8.56152,0.005497787,0.01863139,0.007483099,20240202_130808_670
0.78664047,4.610371,8.580662,0.005497787,0.011453724,0.00870483,20240202_130808_672
0.8009974,4.624728,8.585447,0.0030543262,0.011453724,0.00870483,20240202_130808_674
0.8147561,4.619942,8.590233,0.0030543262,0.011453724,0.007483099,20240202_130808_677
0.80997044,4.619942,8.609376,0.0030543262,0.0065668016,0.00870483,20240202_130808_678
0.80997044,4.619942,8.609376,7.6358154E-4,0.0053450707,0.00870483,20240202_130808_680
0.8243274,4.610371,8.599805,7.6358154E-4,0.0053450707,0.00870483,20240202_130808_683
0.8105687,4.596014,8.599805,-4.5814895E-4,4.5814895E-4,0.009773844,20240202_130808_685
0.8249256,4.5768714,8.599805,-4.5814895E-4,-0.001985312,0.009773844,20240202_130808_686
0.8344969,4.5768714,8.595019,-4.5814895E-4,-0.0032070426,0.010995574,20240202_130808_690
0.8392825,4.552943,8.595019,7.6358154E-4,-0.0056505036,0.012217305,20240202_130808_691
0.8392825,4.557729,8.595019,-4.5814895E-4,-0.006872234,0.013439035,20240202_130808_693
0.8488538,4.543372,8.599805,-0.0016798794,-0.008093964,0.014660766,20240202_130808_696
0.8488538,4.552943,8.60459,-4.5814895E-4,-0.008093964,0.015882496,20240202_130808_697
0.8488538,4.5338006,8.60459,-0.0016798794,-0.008093964,0.017104227,20240202_130808_700
0.8536395,4.5481577,8.609376,-4.5814895E-4,-0.008093964,0.015882496,20240202_130808_702
0.86261255,4.552943,8.60459,-6.1086525E-4,-0.004428773,0.015882496,20240202_130808_704
0.8536395,4.5338006,8.609376,6.1086525E-4,-0.0056505036,0.017104227,20240202_130808_706
0.86261255,4.529015,8.63809,6.1086525E-4,-0.001985312,0.017104227,20240202_130808_709
0.8769695,4.5098724,8.652447,0.0030543262,0.0016798794,0.018478673,20240202_130808_711
0.8961121,4.543372,8.642876,0.005497787,0.00290161,0.020922136,20240202_130808_713
0.9056834,4.552943,8.671589,0.007941248,0.007788532,0.019700404,20240202_130808_714
0.910469,4.557729,8.657232,0.01038471,0.011453724,0.020922136,20240202_130808_716
0.90089774,4.581657,8.681161,0.01282817,0.009010263,0.020922136,20240202_130808_719
0.90089774,4.596014,8.681161,0.015271631,0.015118915,0.019700404,20240202_130808_721
0.91525465,4.610371,8.6757765,0.017715093,0.018784106,0.019700404,20240202_130808_723
0.8961121,4.610371,8.6757765,0.021380283,0.016340645,0.01740966,20240202_130808_725
0.8673982,4.624728,8.662018,0.023823744,0.018784106,0.01740966,20240202_130808_727
0.86261255,4.6486564,8.662018,0.025045475,0.021227567,0.014966198,20240202_130808_729
0.87218386,4.6582274,8.63809,0.027488936,0.012675454,0.0125227375,20240202_130808_732
0.8673982,4.6486564,8.609376,0.028710667,0.012675454,0.0125227375,20240202_130808_733
0.8769695,4.6055856,8.6141615,0.027488936,0.015118915,0.008857546,20240202_130808_736
0.8769695,4.596014,8.633304,0.025045475,0.009010263,0.0076358155,20240202_130808_738
0.8578269,4.586443,8.647661,0.021380283,0.0053450707,0.0062613687,20240202_130808_741
0.8673982,4.557729,8.652447,0.020158553,0.009010263,0.0062613687,20240202_130808_743
0.8769695,4.5481577,8.662018,0.017715093,0.0065668016,0.0050396384,20240202_130808_745
0.8578269,4.557729,8.623733,0.017715093,-7.6358154E-4,0.0050396384,20240202_130808_747
0.84825563,4.557729,8.595019,0.015271631,0.0041233404,0.0025961774,20240202_130808_749
0.8578269,4.572086,8.571091,0.014202617,4.5814895E-4,0.0038179078,20240202_130808_751
0.8578269,4.562515,8.571091,0.0154243475,-0.007941248,0.0025961774,20240202_130808_752
0.8578269,4.5768714,8.585447,0.014202617,-0.001985312,1.5271631E-4,20240202_130808_755
0.8530413,4.581657,8.595019,0.014202617,0.00290161,1.5271631E-4,20240202_130808_757
0.8578269,4.5912285,8.618947,0.012980887,-0.001985312,-0.0022907446,20240202_130808_759
0.8673982,4.581657,8.63809,0.012980887,0.0053450707,-0.0022907446,20240202_130808_761
0.86261255,4.5768714,8.623733,0.012980887,0.012675454,-0.005955936,20240202_130808_764
0.8673982,4.572086,8.618947,0.011759156,0.012675454,-0.005955936,20240202_130808_766
0.8769695,4.557729,8.599805,0.014202617,0.018784106,-0.008399397,20240202_130808_768
0.8865408,4.5481577,8.599805,0.011759156,0.024740042,-0.008399397,20240202_130808_774
0.910469,4.5481577,8.571091,0.012980887,0.027183503,-0.008399397,20240202_130808_775
0.8913264,4.557729,8.575876,0.01282817,0.033292156,-0.0071776668,20240202_130808_776
0.90089774,4.552943,8.595019,0.015271631,0.03573562,-0.005955936,20240202_130808_777
0.8769695,4.538586,8.590233,0.014049901,0.043066,-0.005955936,20240202_130808_779
0.87218386,4.529015,8.595019,0.014049901,0.045356743,-0.004581489,20240202_130808_781
0.8530413,4.557729,8.590233,0.014049901,0.045356743,-0.0033597588,20240202_130808_783
0.82971126,4.557729,8.585447,0.014049901,0.046578474,-0.0033597588,20240202_130808_785
0.8344969,4.538586,8.580662,0.014049901,0.045356743,-0.0033597588,20240202_130808_788
0.8488538,4.543372,8.575876,0.01160644,0.045356743,-0.0035124752,20240202_130808_790
0.84406817,4.543372,8.595019,0.01160644,0.043066,-0.0035124752,20240202_130808_791
0.8530413,4.5673003,8.595019,0.007941248,0.038179077,-0.0047342055,20240202_130808_793
0.86261255,4.581657,8.6141615,0.007941248,0.038179077,-0.0035124752,20240202_130808_796
0.84825563,4.596014,8.618947,0.007941248,0.038179077,-0.005955936,20240202_130808_800
0.84825563,4.6151567,8.623733,0.0056505036,0.032070424,-0.0071776668,20240202_130808_801
0.8578269,4.624728,8.642876,0.0032070426,0.030848695,-0.0096211275,20240202_130808_802
0.84347,4.619942,8.628518,0.0032070426,0.030848695,-0.010842858,20240202_130808_804
0.8386843,4.610371,8.628518,0.0032070426,0.025961773,-0.012064588,20240202_130808_807
0.8243274,4.6151567,8.63809,0.004428773,0.024740042,-0.013286319,20240202_130808_809
0.80578303,4.596014,8.599805,0.006872234,0.01985312,-0.01450805,20240202_130808_811
0.80578303,4.581657,8.599805,0.004428773,0.016187929,-0.01572978,20240202_130808_813
0.8105687,4.581657,8.595019,0.004428773,0.009010263,-0.01450805,20240202_130808_816
0.8153543,4.5768714,8.590233,0.004428773,0.0065668016,-0.017104227,20240202_130808_818
0.8009974,4.5768714,8.585447,0.0032070426,4.5814895E-4,-0.017104227,20240202_130808_820
0.7962117,4.6055856,8.585447,0.0021380284,-0.0056505036,-0.017104227,20240202_130808_822
0.8009974,4.6007996,8.599805,0.0021380284,-0.009315695,-0.018325957,20240202_130808_824
0.8009974,4.610371,8.595019,-3.0543262E-4,-0.01282817,-0.018325957,20240202_130808_826
0.77706915,4.6007996,8.633304,-0.0015271631,-0.020158553,-0.017104227,20240202_130808_828
0.76749784,4.6007996,8.63809,-0.0027488936,-0.017715093,-0.017104227,20240202_130808_830
0.76749784,4.586443,8.628518,-0.0027488936,-0.021380283,-0.015882496,20240202_130808_833
0.76749784,4.581657,8.6141615,-0.003970624,-0.025045475,-0.014660766,20240202_130808_834
0.76749784,4.6007996,8.609376,-0.0027488936,-0.026267206,-0.012217305,20240202_130808_837
0.7722835,4.610371,8.618947,-0.0027488936,-0.022602014,-0.010995574,20240202_130808_839
0.7818548,4.5912285,8.6141615,-3.0543262E-4,-0.027488936,-0.007330383,20240202_130808_841
0.7818548,4.6007996,8.60459,-0.0015271631,-0.026267206,-0.0061086523,20240202_130808_843
0.7818548,4.6151567,8.580662,-0.0016798794,-0.026267206,-0.0036651916,20240202_130808_845
0.77706915,4.6295137,8.623733,7.6358154E-4,-0.022602014,-0.0012217305,20240202_130808_847
0.78664047,4.624728,8.609376,7.6358154E-4,-0.022602014,0.0012217305,20240202_130808_850
0.7818548,4.6055856,8.599805,0.001985312,-0.022602014,0.004886922,20240202_130808_852
0.7818548,4.610371,8.590233,0.0032070426,-0.017715093,0.004886922,20240202_130808_854
0.79142606,4.610371,8.595019,0.004428773,-0.015271631,0.0061086523,20240202_130808_856
0.7962117,4.610371,8.585447,0.004428773,-0.014049901,0.0061086523,20240202_130808_858
0.8009974,4.610371,8.580662,0.0056505036,-0.01038471,0.007330383,20240202_130808_861
0.81954175,4.619942,8.590233,0.006872234,-0.007941248,0.0062613687,20240202_130808_862
0.81954175,4.653442,8.580662,0.0032070426,-0.007941248,0.008552114,20240202_130808_865
0.82911307,4.663013,8.551949,0.0032070426,-0.006872234,0.008552114,20240202_130808_867
0.83389866,4.6582274,8.551949,-4.5814895E-4,-0.004428773,0.007330383,20240202_130808_869
0.8243274,4.6438704,8.547162,-0.00290161,-0.0056505036,0.007330383,20240202_130808_871
0.82911307,4.6486564,8.551949,-0.0041233404,-0.001985312,0.004886922,20240202_130808_873
0.82911307,4.6295137,8.56152,-0.009010263,-0.004428773,0.004886922,20240202_130808_877
0.8147561,4.610371,8.566305,-0.011453724,-0.0032070426,0.004886922,20240202_130808_878
0.80578303,4.581657,8.571091,-0.016340645,-7.6358154E-4,0.0061086523,20240202_130808_880
0.80578303,4.572086,8.571091,-0.020005837,-0.0032070426,0.0061086523,20240202_130808_882
0.8249256,4.5673003,8.556734,-0.021227567,-0.0032070426,0.007330383,20240202_130808_884
0.8249256,4.5768714,8.551949,-0.02611449,-0.004428773,0.005955936,20240202_130808_886
0.83389866,4.581657,8.532805,-0.02733622,-0.006872234,0.0071776668,20240202_130808_888
0.8249256,4.572086,8.556734,-0.031001411,-0.009315695,0.008399397,20240202_130808_890
0.84347,4.5768714,8.56152,-0.033292156,-0.011759156,0.0071776668,20240202_130808_892
0.8530413,4.562515,8.575876,-0.03573562,-0.011759156,0.008399397,20240202_130808_895
0.84825563,4.572086,8.595019,-0.036957346,-0.014202617,0.008399397,20240202_130808_896
0.8578269,4.581657,8.575876,-0.038179077,-0.014202617,0.008399397,20240202_130808_899
0.8386843,4.5768714,8.60459,-0.03940081,-0.012980887,0.008399397,20240202_130808_901
0.8673982,4.596014,8.60459,-0.03940081,-0.012980887,0.008399397,20240202_130808_904
0.84825563,4.5768714,8.623733,-0.03940081,-0.0154243475,0.005955936,20240202_130808_906
0.84825563,4.581657,8.623733,-0.03940081,-0.010537425,0.005955936,20240202_130808_910
0.8386843,4.557729,8.618947,-0.03940081,-0.012980887,0.0071776668,20240202_130808_911
0.84347,4.557729,8.595019,-0.038179077,-0.009315695,0.005955936,20240202_130808_912
0.8578269,4.5673003,8.618947,-0.03573562,-0.011759156,0.005955936,20240202_130808_914
0.84406817,4.557729,8.609376,-0.033292156,-0.006872234,0.0071776668,20240202_130808_916
0.8578269,4.562515,8.628518,-0.032223143,-0.004428773,0.0071776668,20240202_130808_918
0.84825563,4.552943,8.63809,-0.02855795,-0.004428773,0.0071776668,20240202_130808_921
0.84825563,4.5481577,8.647661,-0.02733622,-0.001985312,0.0071776668,20240202_130808_923
0.84825563,4.552943,8.647661,-0.02611449,-0.001985312,0.0071776668,20240202_130808_926
0.84825563,4.5481577,8.666803,-0.024892759,-7.6358154E-4,0.0096211275,20240202_130808_927
0.8530413,4.5481577,8.662018,-0.022449298,0.0016798794,0.008552114,20240202_130808_929
0.86261255,4.5481577,8.657232,-0.016340645,0.00290161,0.008552114,20240202_130808_931
0.86261255,4.5768714,8.662018,-0.015118915,0.0041233404,0.009773844,20240202_130808_933
0.86261255,4.552943,8.666803,-0.011453724,0.00290161,0.008552114,20240202_130808_936
0.8673982,4.5673003,8.652447,-0.007788532,0.00290161,0.007330383,20240202_130808_938
0.86261255,4.562515,8.662018,-0.0065668016,0.0016798794,0.0061086523,20240202_130808_940
0.86261255,4.562515,8.666803,-0.00290161,0.00290161,0.0061086523,20240202_130808_941
0.8578269,4.5673003,8.662018,-4.5814895E-4,0.0016798794,0.004886922,20240202_130808_944
0.86261255,4.552943,8.657232,0.001985312,4.5814895E-4,0.004886922,20240202_130808_946
0.87218386,4.552943,8.652447,0.0056505036,0.0041233404,0.0038179078,20240202_130808_949
0.87218386,4.5481577,8.647661,0.008093964,0.0053450707,0.0038179078,20240202_130808_950
0.8673982,4.552943,8.642876,0.009315695,0.0016798794,0.0025961774,20240202_130808_952
0.8769695,4.543372,8.63809,0.010537425,0.0053450707,0.0013744468,20240202_130808_954
0.8817552,4.5338006,8.652447,0.012980887,0.0016798794,1.5271631E-4,20240202_130808_956
0.8769695,4.538586,8.633304,0.011759156,-7.6358154E-4,-0.0010690142,20240202_130808_959
0.8769695,4.5338006,8.609376,0.011759156,4.5814895E-4,-0.0022907446,20240202_130808_961
0.8865408,4.543372,8.63809,0.011759156,-0.001985312,-0.0047342055,20240202_130808_965
0.8817552,4.552943,8.6141615,0.009315695,-0.0056505036,-0.005955936,20240202_130808_965
0.8817552,4.5481577,8.633304,0.006872234,-0.008093964,-0.008552114,20240202_130808_968
0.8865408,4.552943,8.599805,0.0056505036,-0.009315695,-0.009773844,20240202_130808_970
0.8817552,4.538586,8.599805,0.001985312,-0.011759156,-0.010995574,20240202_130808_973
0.8865408,4.5481577,8.580662,-3.0543262E-4,-0.011759156,-0.014660766,20240202_130808_974
0.8913264,4.552943,8.599805,-0.003970624,-0.015271631,-0.015882496,20240202_130808_977
0.87218386,4.562515,8.571091,-0.006414085,-0.020158553,-0.017104227,20240202_130808_978
0.8817552,4.5631127,8.551949,-0.011301007,-0.018936822,-0.018478673,20240202_130808_980
0.8632108,4.5391846,8.566305,-0.016187929,-0.022602014,-0.019700404,20240202_130808_982
0.86261255,4.543372,8.571091,-0.02107485,-0.021380283,-0.022143865,20240202_130808_985
0.8386843,4.557729,8.566903,-0.024587326,-0.022602014,-0.022143865,20240202_130808_987
0.8386843,4.562515,8.571091,-0.028252518,-0.021380283,-0.022143865,20240202_130808_989
0.8386843,4.552943,8.585447,-0.03313944,-0.021380283,-0.022143865,20240202_130808_991
0.8530413,4.562515,8.580662,-0.03680463,-0.022602014,-0.01985312,20240202_130808_993
0.8578269,4.562515,8.580662,-0.03924809,-0.021380283,-0.02107485,20240202_130808_996
0.8673982,4.5768714,8.575876,-0.044135015,-0.016646078,-0.01985312,20240202_130808_997
0.87218386,4.5912285,8.599805,-0.045356743,-0.016646078,-0.01863139,20240202_130809_000
0.86261255,4.610371,8.590233,-0.046578474,-0.012980887,-0.01740966,20240202_130809_001
0.8530413,4.596014,8.575876,-0.047800206,-0.0056505036,-0.01740966,20240202_130809_004
0.83389866,4.6007996,8.599805,-0.049021937,-0.0056505036,-0.016187929,20240202_130809_006
0.84347,4.586443,8.590233,-0.047800206,-0.0032070426,-0.016187929,20240202_130809_008
0.81954175,4.572086,8.580662,-0.046731193,0.0016798794,-0.014966198,20240202_130809_010
0.8147561,4.572086,8.595019,-0.04550946,0.0041233404,-0.014966198,20240202_130809_013
0.8147561,4.5673003,8.599805,-0.04184427,0.0065668016,-0.013591751,20240202_130809_016
0.8243274,4.5912285,8.609376,-0.038179077,0.010079277,-0.012370021,20240202_130809_018
0.81954175,4.596014,8.623733,-0.038179077,0.0125227375,-0.00992656,20240202_130809_019
0.8147561,4.5912285,8.63809,-0.036957346,0.0125227375,-0.00870483,20240202_130809_021
0.8003992,4.6151567,8.623733,-0.032070424,0.014966198,-0.007483099,20240202_130809_023
0.7956135,4.6151567,8.647661,-0.032070424,0.014966198,-0.0038179078,20240202_130809_025
0.7956135,4.6151567,8.642876,-0.02855795,0.016187929,-0.0025961774,20240202_130809_027
0.7812566,4.619942,8.666803,-0.02733622,0.016187929,0.0012217305,20240202_130809_029
0.7716853,4.6151567,8.662018,-0.024892759,0.013744468,0.0036651916,20240202_130809_032
0.76271224,4.610371,8.666803,-0.022449298,0.012675454,0.007330383,20240202_130809_034
0.7435696,4.6007996,8.681161,-0.020005837,0.007788532,0.008552114,20240202_130809_036
0.7435696,4.6007996,8.671589,-0.017562376,0.0065668016,0.010995574,20240202_130809_038
0.73399836,4.5912285,8.671589,-0.013897184,0.00290161,0.013439035,20240202_130809_041
0.7435696,4.610371,8.681161,-0.010231993,-0.0032070426,0.013439035,20240202_130809_042
0.7435696,4.6007996,8.657232,-0.009010263,-0.009162978,0.013439035,20240202_130809_044
0.74835527,4.6151567,8.652447,-0.0065668016,-0.01038471,0.012217305,20240202_130809_046
0.74835527,4.596014,8.666803,-0.00290161,-0.015271631,0.014660766,20240202_130809_049
0.74835527,4.586443,8.657232,-4.5814895E-4,-0.022602014,0.013439035,20240202_130809_051
0.76749784,4.5912285,8.657232,7.6358154E-4,-0.022602014,0.012217305,20240202_130809_053
0.7818548,4.586443,8.642876,0.0032070426,-0.027488936,0.013439035,20240202_130809_056
0.8003992,4.581657,8.666803,0.004428773,-0.031154128,0.013439035,20240202_130809_058
0.8003992,4.586443,8.652447,0.004428773,-0.033444874,0.012217305,20240202_130809_059
0.82911307,4.581657,8.671589,0.0056505036,-0.033444874,0.010995574,20240202_130809_062
0.83389866,4.581657,8.657232,0.004428773,-0.0346666,0.010995574,20240202_130809_064
0.82911307,4.572086,8.666803,0.0032070426,-0.040775254,0.009773844,20240202_130809_066
0.81954175,4.562515,8.657232,0.0032070426,-0.037110064,0.008552114,20240202_130809_068
0.8344969,4.529015,8.633304,0.001985312,-0.038331795,0.008552114,20240202_130809_070
0.8344969,4.5338006,8.595019,0.0032070426,-0.039553523,0.008552114,20240202_130809_072
0.86261255,4.5242295,8.595019,0.0032070426,-0.037110064,0.008552114,20240202_130809_075
0.85842514,4.5003014,8.585447,0.001985312,-0.037110064,0.012217305,20240202_130809_077
0.87218386,4.4955153,8.6141615,0.0032070426,-0.037110064,0.012217305,20240202_130809_079
0.8865408,4.505087,8.6141615,0.001985312,-0.033444874,0.014660766,20240202_130809_081
0.8913264,4.514658,8.60459,7.6358154E-4,-0.029932396,0.015882496,20240202_130809_083
0.8865408,4.538586,8.590233,0.001985312,-0.028710667,0.014660766,20240202_130809_085
0.8961121,4.5098724,8.609376,7.6358154E-4,-0.023823744,0.015882496,20240202_130809_088
0.8961121,4.519444,8.595019,7.6358154E-4,-0.017715093,0.015882496,20240202_130809_090
0.8913264,4.5242295,8.6141615,7.6358154E-4,-0.01282817,0.015882496,20240202_130809_092
0.910469,4.529015,8.599805,-0.0016798794,-0.01038471,0.018325957,20240202_130809_094
0.9056834,4.519444,8.6141615,-0.00290161,-0.004428773,0.015882496,20240202_130809_096
0.9056834,4.538586,8.623733,-0.0018325958,4.5814895E-4,0.018325957,20240202_130809_098
0.910469,4.538586,8.6141615,-0.0018325958,0.00290161,0.015882496,20240202_130809_100
0.91525465,4.5481577,8.6141615,-0.0018325958,0.0065668016,0.016035212,20240202_130809_102
0.910469,4.552943,8.609376,-0.0018325958,0.007788532,0.013591751,20240202_130809_105
0.910469,4.5673003,8.60459,-0.0018325958,0.007788532,0.012217305,20240202_130809_107
0.910469,4.5768714,8.623733,-0.00290161,0.010231993,0.009773844,20240202_130809_109
0.910469,4.5768714,8.595019,-0.0041233404,0.010231993,0.008552114,20240202_130809_112
0.9056834,4.5768714,8.6141615,-0.0041233404,0.0065668016,0.0061086523,20240202_130809_114
0.8913264,4.543372,8.599805,-0.0041233404,0.009010263,0.004886922,20240202_130809_116
0.8817552,4.5481577,8.599805,-0.0053450707,0.009010263,0.002443461,20240202_130809_118
0.8769695,4.572086,8.6141615,-0.0065668016,0.0053450707,0.0012217305,20240202_130809_121
0.8817552,4.5673003,8.628518,-0.0053450707,0.0065668016,-0.002443461,20240202_130809_122
0.90089774,4.5673003,8.647661,-0.0053450707,0.009010263,-0.002443461,20240202_130809_124
0.8913264,4.581657,8.63809,-0.0053450707,0.0053450707,-0.004886922,20240202_130809_126
0.8865408,4.572086,8.642876,-0.0053450707,0.0065668016,-0.007330383,20240202_130809_129
0.8913264,4.5768714,8.657232,-0.0053450707,0.009010263,-0.007330383,20240202_130809_130
0.8769695,4.581657,8.657232,-0.0065668016,0.009010263,-0.009773844,20240202_130809_133
0.8817552,4.5481577,8.63809,-0.0065668016,0.007788532,-0.010995574,20240202_130809_135
0.87218386,4.552943,8.642876,-0.0053450707,0.011453724,-0.012217305,20240202_130809_137
0.87218386,4.5481577,8.662018,-0.0053450707,0.011453724,-0.012217305,20240202_130809_139
0.8673982,4.552943,8.642876,-0.0041233404,0.010231993,-0.013439035,20240202_130809_141
0.8530413,4.5481577,8.671589,-0.0053450707,0.016340645,-0.015882496,20240202_130809_143
0.84825563,4.5481577,8.662018,-0.00290161,0.011453724,-0.015882496,20240202_130809_145
0.82911307,4.5481577,8.63809,-0.00290161,0.012675454,-0.018325957,20240202_130809_147
0.83389866,4.519444,8.63809,-0.00290161,0.013897184,-0.018325957,20240202_130809_150
0.82013994,4.519444,8.633903,-4.5814895E-4,0.010231993,-0.019547688,20240202_130809_153
0.82971126,4.514658,8.614759,0.001985312,0.007788532,-0.017104227,20240202_130809_154
0.8386843,4.519444,8.633304,0.0032070426,0.010231993,-0.017104227,20240202_130809_157
0.84347,4.519444,8.628518,0.004428773,0.0065668016,-0.017104227,20240202_130809_159
0.84347,4.519444,8.647661,0.0032070426,0.0041233404,-0.015882496,20240202_130809_160
0.83389866,4.5242295,8.666803,0.004428773,0.010231993,-0.01450805,20240202_130809_163
0.8386843,4.5242295,8.671589,0.0032070426,0.0065668016,-0.013439035,20240202_130809_165
0.82911307,4.529015,8.671589,0.0032070426,0.00290161,-0.010995574,20240202_130809_167
0.83389866,4.519444,8.666803,0.004428773,0.010231993,-0.0096211275,20240202_130809_169
0.83389866,4.5242295,8.685946,0.004428773,0.009010263,-0.008399397,20240202_130809_172
0.8105687,4.529015,8.666803,0.004428773,0.0065668016,-0.005955936,20240202_130809_173
0.82013994,4.5338006,8.647661,0.006872234,0.011453724,-0.0035124752,20240202_130809_177
0.8105687,4.5242295,8.652447,0.008093964,0.011453724,-0.0010690142,20240202_130809_178
0.8249256,4.5242295,8.642876,0.011759156,0.011453724,0.0013744468,20240202_130809_180
0.8243274,4.552943,8.633304,0.01282817,0.011453724,0.0038179078,20240202_130809_183
0.8243274,4.5481577,8.623733,0.015271631,0.016340645,0.0062613687,20240202_130809_185
0.8243274,4.5673003,8.642876,0.016493361,0.015118915,0.00870483,20240202_130809_186
0.81954175,4.543372,8.63809,0.018936822,0.015118915,0.011148291,20240202_130809_189
0.80997044,4.552943,8.614759,0.020158553,0.021227567,0.013744468,20240202_130809_190
0.8147561,4.557729,8.609974,0.022602014,0.021227567,0.014966198,20240202_130809_193
0.80997044,4.562515,8.605188,0.023823744,0.021227567,0.016187929,20240202_130809_195
0.8147561,4.572086,8.595617,0.023823744,0.02367103,0.01985312,20240202_130809_197
0.80997044,4.572086,8.581261,0.023823744,0.022449298,0.01985312,20240202_130809_199
0.8147561,4.572086,8.590832,0.021380283,0.020005837,0.01985312,20240202_130809_202
0.82911307,4.5768714,8.586046,0.021380283,0.024892759,0.02107485,20240202_130809_204
0.8243274,4.586443,8.599805,0.018936822,0.02367103,0.023518313,20240202_130809_205
0.80997044,4.586443,8.600403,0.016493361,0.018784106,0.022143865,20240202_130809_208
0.80997044,4.596014,8.590832,0.014049901,0.017562376,0.022143865,20240202_130809_210
0.80518484,4.5912285,8.576474,0.01038471,0.018784106,0.022143865,20240202_130809_212
0.8147561,4.5912285,8.562118,0.0067195175,0.012675454,0.019700404,20240202_130809_215
0.83389866,4.5912285,8.5525465,0.004276057,0.009010263,0.018478673,20240202_130809_217
0.83389866,4.610371,8.538189,6.1086525E-4,0.007788532,0.016035212,20240202_130809_219
0.84347,4.596014,8.547761,-0.0018325958,0.0053450707,0.017104227,20240202_130809_221
0.84347,4.5768714,8.562118,-0.0053450707,0.0016798794,0.015882496,20240202_130809_223
0.8578269,4.5768714,8.5525465,-0.007788532,0.00290161,0.013439035,20240202_130809_226
0.84347,4.586443,8.571689,-0.011453724,4.5814895E-4,0.013439035,20240202_130809_228
0.8578269,4.5768714,8.571091,-0.015118915,-7.6358154E-4,0.012217305,20240202_130809_229
0.8530413,4.581657,8.590233,-0.015118915,4.5814895E-4,0.010995574,20240202_130809_232
0.8386843,4.562515,8.557332,-0.020005837,-0.001985312,0.008552114,20240202_130809_234
0.84347,4.5481577,8.581261,-0.020005837,-0.0032070426,0.007330383,20240202_130809_237
0.84347,4.5481577,8.576474,-0.02367103,-0.001985312,0.005955936,20240202_130809_238
0.8530413,4.5481577,8.566903,-0.024892759,-0.004428773,0.0071776668,20240202_130809_240
0.82911307,4.557729,8.590832,-0.02611449,-0.006872234,0.008399397,20240202_130809_242
0.84825563,4.572086,8.60459,-0.02733622,-0.004428773,0.0071776668,20240202_130809_244
0.8578269,4.586443,8.599805,-0.02855795,-0.004428773,0.008399397,20240202_130809_246
0.84825563,4.6007996,8.618947,-0.02855795,-0.0056505036,0.008399397,20240202_130809_249
0.84825563,4.6151567,8.633304,-0.02855795,-0.0056505036,0.008399397,20240202_130809_252
0.8386843,4.610371,8.623733,-0.02855795,-0.004428773,0.008399397,20240202_130809_253
0.8386843,4.581657,8.6141615,-0.02855795,-0.0032070426,0.0096211275,20240202_130809_256
0.83389866,4.5673003,8.623733,-0.02855795,-0.0056505036,0.010842858,20240202_130809_258
0.8243274,4.538586,8.633304,-0.02977968,-0.0032070426,0.010842858,20240202_130809_259
0.8243274,4.543372,8.628518,-0.02977968,-0.0032070426,0.012064588,20240202_130809_262
0.84347,4.529015,8.628518,-0.02733622,-7.6358154E-4,0.012064588,20240202_130809_264
0.84347,4.5242295,8.6141615,-0.02611449,-0.001985312,0.012064588,20240202_130809_266
0.8386843,4.529015,8.618947,-0.024892759,-0.0032070426,0.012064588,20240202_130809_268
0.84825563,4.5338006,8.63809,-0.02367103,-0.001985312,0.013286319,20240202_130809_270
0.84347,4.5338006,8.657232,-0.02367103,-7.6358154E-4,0.013439035,20240202_130809_273
0.8386843,4.543372,8.676374,-0.021227567,4.5814895E-4,0.010995574,20240202_130809_274
0.8386843,4.5481577,8.705089,-0.020005837,0.0016798794,0.012217305,20240202_130809_277
0.8386843,4.5481577,8.700303,-0.018784106,0.0065668016,0.012217305,20240202_130809_279
0.82911307,4.557729,8.690732,-0.016340645,0.0053450707,0.009773844,20240202_130809_282
0.8386843,4.557729,8.681161,-0.013897184,0.0041233404,0.010995574,20240202_130809_283
0.8530413,4.557729,8.681161,-0.011453724,0.0065668016,0.008552114,20240202_130809_285
0.8530413,4.5481577,8.671589,-0.010231993,0.0065668016,0.008552114,20240202_130809_288
0.84825563,4.538586,8.685946,-0.007788532,0.0041233404,0.008552114,20240202_130809_289
0.8530413,4.529015,8.666803,-0.0041233404,0.0065668016,0.007330383,20240202_130809_291
0.8578269,4.529015,8.681161,-0.00290161,0.007788532,0.007330383,20240202_130809_296
0.86261255,4.5242295,8.676374,7.6358154E-4,0.0053450707,0.0061086523,20240202_130809_297
0.8530413,4.5098724,8.662018,0.001985312,0.00290161,0.0061086523,20240202_130809_298
0.8673982,4.5003014,8.671589,0.004428773,0.0065668016,0.0062613687,20240202_130809_300
0.87218386,4.514658,8.662018,0.0056505036,0.0041233404,0.0062613687,20240202_130809_302
0.8769695,4.519444,8.662018,0.009315695,4.5814895E-4,0.0062613687,20240202_130809_304
0.8769695,4.529015,8.652447,0.010537425,0.0016798794,0.0062613687,20240202_130809_306
0.87218386,4.557729,8.662018,0.010537425,0.00290161,0.0050396384,20240202_130809_310
0.8673982,4.5242295,8.662018,0.010537425,-0.001985312,0.0025961774,20240202_130809_311
0.86261255,4.5338006,8.647661,0.011759156,-0.0030543262,0.0050396384,20240202_130809_314
0.8673982,4.5338006,8.652447,0.011759156,-0.004276057,0.0013744468,20240202_130809_315
0.87218386,4.529015,8.633304,0.014202617,-0.0067195175,1.5271631E-4,20240202_130809_317
0.8769695,4.5338006,8.652447,0.010537425,-0.005497787,1.5271631E-4,20240202_130809_320
0.8673982,4.5338006,8.623733,0.011759156,-0.004276057,-0.0022907446,20240202_130809_322
0.86261255,4.5338006,8.647661,0.011759156,-0.009162978,-0.0010690142,20240202_130809_325
0.8578269,4.538586,8.642876,0.011759156,-0.004276057,-0.0022907446,20240202_130809_326
0.86261255,4.538586,8.642876,0.010537425,-0.004276057,-0.0035124752,20240202_130809_329
0.84825563,4.538586,8.623733,0.012980887,-0.007941248,-0.0035124752,20240202_130809_331
0.8578269,4.514658,8.619545,0.012980887,-0.005497787,-0.0047342055,20240202_130809_333
0.8530413,4.5242295,8.628518,0.0154243475,-0.005497787,-0.0035124752,20240202_130809_335
0.86261255,4.5242295,8.623733,0.0154243475,-0.004276057,-0.0035124752,20240202_130809_337
0.8530413,4.5242295,8.624331,0.016646078,-0.0030543262,-0.0010690142,20240202_130809_339
0.8578269,4.5338006,8.618947,0.01786781,-6.1086525E-4,-0.0010690142,20240202_130809_341
0.86261255,4.557729,8.642876,0.01786781,-0.0030543262,1.5271631E-4,20240202_130809_343
0.8530413,4.557729,8.63809,0.019089539,-0.0018325958,1.5271631E-4,20240202_130809_346
0.84825563,4.572086,8.633304,0.02031127,0.00290161,1.5271631E-4,20240202_130809_348
0.84825563,4.5768714,8.642876,0.021533,0.0018325958,1.5271631E-4,20240202_130809_350
0.84825563,4.572086,8.63809,0.02031127,6.1086525E-4,1.5271631E-4,20240202_130809_353
0.83389866,4.586443,8.633304,0.021380283,0.0041233404,0.0013744468,20240202_130809_355
0.8386843,4.5768714,8.6141615,0.022602014,0.0041233404,-0.0010690142,20240202_130809_357
0.83389866,4.572086,8.623733,0.02031127,0.00290161,1.5271631E-4,20240202_130809_358
0.82911307,4.5673003,8.623733,0.020158553,0.007788532,-0.0010690142,20240202_130809_360
0.83389866,4.572086,8.609376,0.01786781,0.0041233404,1.5271631E-4,20240202_130809_362
0.8386843,4.572086,8.6141615,0.018936822,0.0041233404,0.0025961774,20240202_130809_364
0.8243274,4.5673003,8.618947,0.017715093,0.0053450707,0.0038179078,20240202_130809_366
0.8243274,4.557729,8.590832,0.015271631,0.0065668016,0.0050396384,20240202_130809_368
0.8153543,4.543372,8.600403,0.015271631,0.0053450707,0.0062613687,20240202_130809_372
0.7962117,4.552943,8.595617,0.014049901,0.0053450707,0.00870483,20240202_130809_373
0.80578303,4.552943,8.595617,0.014049901,0.0041233404,0.00870483,20240202_130809_376
0.8105687,4.552943,8.571689,0.01038471,0.00290161,0.00992656,20240202_130809_377
0.8243274,4.557729,8.571689,0.01038471,0.00290161,0.011148291,20240202_130809_379
0.8147561,4.562515,8.576474,0.009162978,0.00290161,0.011148291,20240202_130809_381
0.8147561,4.5673003,8.581261,0.005497787,-0.0018325958,0.013591751,20240202_130809_385
0.82911307,4.586443,8.585447,0.004428773,4.5814895E-4,0.011148291,20240202_130809_386
0.80997044,4.581657,8.576474,7.6358154E-4,-0.001985312,0.010995574,20240202_130809_388
0.80997044,4.586443,8.571689,-0.0041233404,-0.0032070426,0.009773844,20240202_130809_390
0.8003992,4.5912285,8.586046,-0.0065668016,-0.004428773,0.010995574,20240202_130809_393
0.80997044,4.5768714,8.566903,-0.009010263,-0.0067195175,0.009773844,20240202_130809_394
0.80997044,4.5673003,8.547761,-0.012675454,-0.01038471,0.010995574,20240202_130809_396
0.81954175,4.572086,8.547761,-0.017562376,-0.01160644,0.009773844,20240202_130809_399
0.8153543,4.5481577,8.557332,-0.018784106,-0.014049901,0.0096211275,20240202_130809_402
0.8243274,4.572086,8.571689,-0.022449298,-0.014049901,0.0096211275,20240202_130809_403
0.8243274,4.5768714,8.571689,-0.02367103,-0.015271631,0.010842858,20240202_130809_405
0.8147561,4.586443,8.595617,-0.02611449,-0.015271631,0.010842858,20240202_130809_408
0.81954175,4.586443,8.600403,-0.028405234,-0.016493361,0.010842858,20240202_130809_410
0.8147561,4.5912285,8.609974,-0.031001411,-0.014049901,0.012064588,20240202_130809_412
0.81954175,4.5768714,8.605188,-0.033292156,-0.01282817,0.012064588,20240202_130809_415
0.7908279,4.5768714,8.605188,-0.033444874,-0.01160644,0.013286319,20240202_130809_417
0.79142606,4.557729,8.595617,-0.033444874,-0.01038471,0.013286319,20240202_130809_418
0.8153543,4.538586,8.581261,-0.032223143,-0.008093964,0.01450805,20240202_130809_421
0.8386843,4.529015,8.590832,-0.032223143,-0.009162978,0.01695151,20240202_130809_423
0.8530413,4.5338006,8.600403,-0.031001411,-0.008093964,0.01817324,20240202_130809_425
0.84347,4.538586,8.586046,-0.031001411,-0.006872234,0.019394971,20240202_130809_427
0.8386843,4.557729,8.633304,-0.02855795,-0.004428773,0.021838432,20240202_130809_429
0.8386843,4.5673003,8.633304,-0.02977968,-0.006872234,0.024281893,20240202_130809_431
0.8386843,4.552943,8.633304,-0.02611449,-0.004428773,0.024281893,20240202_130809_433
0.8530413,4.562515,8.633304,-0.022449298,-0.004428773,0.02687807,20240202_130809_436
0.8961121,4.538586,8.628518,-0.022449298,-0.007941248,0.029321533,20240202_130809_437
0.95832545,4.529015,8.6141615,-0.020005837,-0.01160644,0.03176499,20240202_130809_440
0.8913264,4.562515,8.60459,-0.020005837,-0.015271631,0.03176499,20240202_130809_442
0.7956135,4.572086,8.643474,-0.016340645,-0.016493361,0.030543262,20240202_130809_444
0.8003992,4.5768714,8.700303,-0.016340645,-0.01160644,0.029321533,20240202_130809_446
0.82911307,4.5673003,8.729017,-0.015118915,-0.009162978,0.029321533,20240202_130809_448
0.8530413,4.557729,8.733803,-0.016340645,-0.009162978,0.029321533,20240202_130809_450
0.8961121,4.5481577,8.733803,-0.013897184,-0.007941248,0.028099801,20240202_130809_452
0.8817552,4.562515,8.729017,-0.013897184,-0.007941248,0.028099801,20240202_130809_455
0.8769695,4.562515,8.71466,-0.011453724,-0.007941248,0.02565634,20240202_130809_456
0.8913264,4.581657,8.681161,-0.010231993,-0.0067195175,0.02443461,20240202_130809_459
0.8865408,4.5768714,8.671589,-0.007788532,-0.0067195175,0.021991149,20240202_130809_461
0.92482597,4.572086,8.652447,-0.0053450707,-0.007941248,0.018325957,20240202_130809_463
0.92482597,4.572086,8.63809,-0.0041233404,-0.005497787,0.015882496,20240202_130809_466
0.9296116,4.552943,8.671589,-0.0041233404,-0.005497787,0.014660766,20240202_130809_468
0.91525465,4.529015,8.676374,-0.0016798794,-0.0018325958,0.012217305,20240202_130809_469
0.9056834,4.505087,8.695518,-4.5814895E-4,0.0016798794,0.010995574,20240202_130809_472
0.90089774,4.4859443,8.685946,-4.5814895E-4,0.0041233404,0.009773844,20240202_130809_474
0.90089774,4.476373,8.671589,7.6358154E-4,0.00290161,0.008552114,20240202_130809_476
0.910469,4.4668016,8.647661,0.004428773,0.0041233404,0.007483099,20240202_130809_478
0.9200403,4.471587,8.628518,0.008093964,0.0065668016,0.0050396384,20240202_130809_481
0.92482597,4.49073,8.609376,0.010537425,0.0016798794,0.0050396384,20240202_130809_482
0.9343972,4.4955153,8.628518,0.012980887,6.1086525E-4,0.0025961774,20240202_130809_485
0.92482597,4.5098724,8.652447,0.014202617,0.0041233404,0.0013744468,20240202_130809_489
0.92482597,4.514658,8.662018,0.0154243475,6.1086525E-4,-0.0010690142,20240202_130809_490
0.9391829,4.519444,8.681161,0.016646078,6.1086525E-4,-0.0010690142,20240202_130809_491
0.92482597,4.5481577,8.671589,0.016646078,0.0041233404,-0.0035124752,20240202_130809_494
0.9343972,4.538586,8.681161,0.01786781,0.0041233404,-0.0047342055,20240202_130809_495
0.91525465,4.5338006,8.671589,0.019089539,0.0041233404,-0.005955936,20240202_130809_498
0.910469,4.514658,8.676374,0.01786781,0.0041233404,-0.0071776668,20240202_130809_500
0.910469,4.514658,8.657232,0.019089539,0.00290161,-0.0071776668,20240202_130809_501
0.9056834,4.505087,8.633304,0.019089539,0.0018325958,-0.008399397,20240202_130809_503
0.8913264,4.5003014,8.642876,0.02031127,0.0018325958,-0.0096211275,20240202_130809_506
0.90089774,4.5098724,8.652447,0.021533,-6.1086525E-4,-0.010842858,20240202_130809_508
0.8961121,4.514658,8.63809,0.02275473,-0.0030543262,-0.012064588,20240202_130809_510
0.8913264,4.529015,8.652447,0.021533,-0.0018325958,-0.012064588,20240202_130809_513
0.8961121,4.5242295,8.647661,0.02275473,-6.1086525E-4,-0.013286319,20240202_130809_514
0.8961121,4.5242295,8.666803,0.025198191,-6.1086525E-4,-0.013286319,20240202_130809_517
0.87218386,4.538586,8.666803,0.026419923,0.0030543262,-0.01572978,20240202_130809_518
0.8865408,4.5242295,8.652447,0.027641652,0.0041233404,-0.01450805,20240202_130809_522
0.8817552,4.5242295,8.633304,0.031306844,0.0053450707,-0.01572978,20240202_130809_523
0.8817552,4.5338006,8.628518,0.032528576,0.007788532,-0.0143553335,20240202_130809_531
0.87218386,4.529015,8.609974,0.033750303,0.0053450707,-0.0143553335,20240202_130809_532
0.8578269,4.543372,8.628518,0.033750303,0.007788532,-0.013133603,20240202_130809_533
0.87218386,4.572086,8.6141615,0.033750303,0.009162978,-0.013133603,20240202_130809_534
0.8578269,4.572086,8.619545,0.032528576,0.010231993,-0.013133603,20240202_130809_535
0.84825563,4.5912285,8.619545,0.032528576,0.009162978,-0.011911872,20240202_130809_536
0.84347,4.581657,8.605188,0.030085113,0.009010263,-0.010842858,20240202_130809_539
0.84347,4.586443,8.600403,0.030085113,0.010231993,-0.012064588,20240202_130809_541
0.83389866,4.581657,8.595617,0.027641652,0.007941248,-0.0096211275,20240202_130809_543
0.8386843,4.572086,8.609974,0.025198191,0.009010263,-0.0071776668,20240202_130809_545
0.84347,4.5768714,8.595617,0.02397646,0.010231993,-0.005955936,20240202_130809_547
0.82911307,4.586443,8.614759,0.021533,0.0067195175,-0.0047342055,20240202_130809_548
0.82911307,4.5912285,8.629117,0.019089539,0.007788532,-0.0010690142,20240202_130809_551
0.80997044,4.6007996,8.605188,0.016646078,0.004276057,-0.0010690142,20240202_130809_554
0.80518484,4.596014,8.600403,0.01786781,0.0067195175,0.0013744468,20240202_130809_556
0.8003992,4.610371,8.586046,0.014202617,0.0065668016,0.0013744468,20240202_130809_557
0.80518484,4.6055856,8.581261,0.0154243475,0.0018325958,0.0038179078,20240202_130809_562
0.80997044,4.619942,8.590832,0.012980887,6.1086525E-4,0.0013744468,20240202_130809_563
0.8243274,4.610371,8.586046,0.012980887,-6.1086525E-4,0.0013744468,20240202_130809_564
0.82911307,4.619942,8.571689,0.012980887,-0.0018325958,0.0013744468,20240202_130809_566
0.82911307,4.624728,8.586046,0.009315695,-6.1086525E-4,-0.0010690142,20240202_130809_568
0.8386843,4.6295137,8.590832,0.009315695,-0.0018325958,1.5271631E-4,20240202_130809_570
0.8386843,4.6342993,8.595617,0.006872234,-6.1086525E-4,-0.0022907446,20240202_130809_572
0.83389866,4.624728,8.586046,0.0056505036,6.1086525E-4,-0.0036651916,20240202_130809_574
0.82911307,4.6151567,8.600403,0.001985312,-6.1086525E-4,-0.004886922,20240202_130809_579
0.84347,4.6055856,8.600403,-4.5814895E-4,-6.1086525E-4,-0.0061086523,20240202_130809_579
0.8386843,4.596014,8.586046,-0.0016798794,-6.1086525E-4,-0.007330383,20240202_130809_581
0.8386843,4.581657,8.566903,-0.0041233404,-0.0030543262,-0.009773844,20240202_130809_583
0.8530413,4.557729,8.557332,-0.0041233404,-0.005497787,-0.008552114,20240202_130809_586
0.8578269,4.543372,8.5525465,-0.008857546,-0.004276057,-0.008552114,20240202_130809_588
0.8578269,4.552943,8.557332,-0.008857546,-0.009162978,-0.007330383,20240202_130809_590
0.8578269,4.543372,8.586046,-0.011301007,-0.007941248,-0.008552114,20240202_130809_592
0.86261255,4.552943,8.605188,-0.014966198,-0.009162978,-0.0062613687,20240202_130809_594
0.84347,4.557729,8.595617,-0.01740966,-0.01160644,-0.007483099,20240202_130809_597
0.84347,4.5481577,8.614759,-0.01863139,-0.01160644,-0.0062613687,20240202_130809_599
0.8578269,4.538586,8.605188,-0.022296581,-0.01160644,-0.007483099,20240202_130809_601
0.8578269,4.538586,8.605188,-0.02107485,-0.014049901,-0.0062613687,20240202_130809_603
0.8530413,4.5338006,8.609974,-0.022296581,-0.014049901,-0.0050396384,20240202_130809_605
0.8530413,4.5338006,8.609974,-0.022296581,-0.014049901,-0.0062613687,20240202_130809_607
0.87218386,4.543372,8.638688,-0.022296581,-0.016493361,-0.0050396384,20240202_130809_609
0.8769695,4.5481577,8.633903,-0.022296581,-0.01282817,-0.0050396384,20240202_130809_611
0.86261255,4.5481577,8.653045,-0.02107485,-0.01160644,-0.0038179078,20240202_130809_614
0.8578269,4.543372,8.672188,-0.02107485,-0.01160644,-0.0050396384,20240202_130809_616
0.8673982,4.5481577,8.681161,-0.01863139,-0.007941248,-0.0050396384,20240202_130809_618
0.8578269,4.5481577,8.662616,-0.016187929,-0.005497787,-0.0036651916,20240202_130809_620
0.86261255,4.5338006,8.643474,-0.014966198,-0.0030543262,-0.004886922,20240202_130809_622
0.8530413,4.538586,8.629117,-0.0125227375,-0.007941248,-0.0036651916,20240202_130809_624
0.86261255,4.538586,8.643474,-0.009010263,-0.005497787,-0.0036651916,20240202_130809_626
0.86261255,4.538586,8.65783,-0.0065668016,-0.0030543262,-0.0036651916,20240202_130809_628
0.8673982,4.552943,8.65783,-0.00290161,-0.0067195175,-0.0036651916,20240202_130809_631
0.8578269,4.562515,8.671589,-0.0016798794,-0.0030543262,-0.004886922,20240202_130809_632
0.8530413,4.543372,8.65783,0.001985312,-0.0018325958,-0.0036651916,20240202_130809_635
0.86261255,4.552943,8.666803,0.0032070426,-6.1086525E-4,-0.004886922,20240202_130809_637
0.86261255,4.5481577,8.681161,0.0032070426,6.1086525E-4,-0.0036651916,20240202_130809_639
0.84347,4.5481577,8.672188,0.0056505036,6.1086525E-4,-0.004886922,20240202_130809_641
0.84347,4.543372,8.672188,0.0056505036,0.0030543262,-0.0022907446,20240202_130809_643
0.8578269,4.5242295,8.672188,0.008093964,0.0041233404,-0.0022907446,20240202_130809_645
0.84825563,4.529015,8.648259,0.009315695,0.0030543262,-0.0022907446,20240202_130809_648
0.83389866,4.519444,8.648259,0.011759156,0.004276057,1.5271631E-4,20240202_130809_649
0.8243274,4.514658,8.629117,0.014202617,0.0030543262,-0.0010690142,20240202_130809_653
0.84347,4.5098724,8.648259,0.0154243475,0.0030543262,-0.0010690142,20240202_130809_655
0.8386843,4.5338006,8.653045,0.016646078,0.0030543262,1.5271631E-4,20240202_130809_656
0.8578269,4.529015,8.648259,0.016646078,0.004276057,1.5271631E-4,20240202_130809_659
0.86261255,4.538586,8.643474,0.012980887,6.1086525E-4,-0.0010690142,20240202_130809_661
0.8530413,4.5481577,8.638688,0.014202617,-6.1086525E-4,-0.0047342055,20240202_130809_663
0.84347,4.572086,8.629117,0.011759156,-6.1086525E-4,-0.0047342055,20240202_130809_665
0.84347,4.562515,8.624331,0.008093964,-0.0067195175,-0.007330383,20240202_130809_668
0.8386843,4.5481577,8.605188,0.0032070426,-0.01038471,-0.008552114,20240202_130809_669
0.8243274,4.538586,8.609974,7.6358154E-4,-0.007941248,-0.009773844,20240202_130809_671
0.8147561,4.5242295,8.624331,-0.003970624,-0.015271631,-0.010995574,20240202_130809_673
0.82911307,4.505087,8.609974,-0.008857546,-0.018936822,-0.010995574,20240202_130809_676
0.8386843,4.514658,8.605188,-0.0125227375,-0.020158553,-0.011148291,20240202_130809_678
0.83389866,4.5242295,8.586046,-0.01740966,-0.025045475,-0.011148291,20240202_130809_680
0.81954175,4.5242295,8.576474,-0.01985312,-0.02855795,-0.012370021,20240202_130809_682
0.83389866,4.514658,8.566903,-0.023518313,-0.031001411,-0.012370021,20240202_130809_684
0.84825563,4.519444,8.576474,-0.025809057,-0.033444874,-0.013591751,20240202_130809_686
0.83389866,4.538586,8.600403,-0.027030786,-0.0346666,-0.013591751,20240202_130809_689
0.84825563,4.552943,8.624331,-0.028252518,-0.033444874,-0.012370021,20240202_130809_690
0.84825563,4.543372,8.629117,-0.03191771,-0.0346666,-0.013744468,20240202_130809_693
0.8386843,4.552943,8.619545,-0.030695979,-0.032223143,-0.013744468,20240202_130809_694
0.84347,4.562515,8.65783,-0.03191771,-0.029932396,-0.0125227375,20240202_130809_697
0.8530413,4.557729,8.619545,-0.03313944,-0.029932396,-0.0125227375,20240202_130809_699
0.86261255,4.581657,8.648259,-0.03313944,-0.028710667,-0.010079277,20240202_130809_702
0.8578269,4.586443,8.638688,-0.030848695,-0.026267206,-0.00870483,20240202_130809_704
0.8673982,4.5768714,8.624331,-0.030848695,-0.021380283,-0.00870483,20240202_130809_705
0.86261255,4.581657,8.648259,-0.029626964,-0.021380283,-0.0050396384,20240202_130809_708
0.84825563,4.5768714,8.633903,-0.025961773,-0.017715093,-0.0038179078,20240202_130809_710
0.84347,4.581657,8.648259,-0.02107485,-0.015271631,-0.0013744468,20240202_130809_712
0.8386843,4.5673003,8.648259,-0.01863139,-0.01282817,-1.5271631E-4,20240202_130809_714
0.8386843,4.5673003,8.667402,-0.013897184,-0.01038471,0.0012217305,20240202_130809_717
0.8530413,4.572086,8.624331,-0.010231993,-0.0067195175,0.002443461,20240202_130809_719
0.82911307,4.5768714,8.643474,-0.0065668016,-0.004276057,0.0036651916,20240202_130809_720
0.84347,4.5768714,8.643474,-0.0041233404,-0.005497787,0.004886922,20240202_130809_723
0.84347,4.5768714,8.653045,0.001985312,-0.004276057,0.004886922,20240202_130809_725
0.8530413,4.5673003,8.648259,0.0056505036,-6.1086525E-4,0.0062613687,20240202_130809_728
0.8673982,4.5673003,8.638688,0.008093964,-6.1086525E-4,0.0062613687,20240202_130809_729
0.8673982,4.5673003,8.648259,0.011759156,0.0018325958,0.00870483,20240202_130809_732
0.86261255,4.5673003,8.667402,0.015271631,0.0030543262,0.00870483,20240202_130809_734
0.86261255,4.562515,8.667402,0.017715093,0.007941248,0.00992656,20240202_130809_737
0.8673982,4.5912285,8.676374,0.020158553,0.0067195175,0.00870483,20240202_130809_738
0.8817552,4.572086,8.671589,0.021380283,0.0067195175,0.00992656,20240202_130809_740
0.8817552,4.562515,8.667402,0.022602014,0.01038471,0.00992656,20240202_130809_742
0.8865408,4.562515,8.653045,0.025045475,0.007941248,0.0062613687,20240202_130809_745
0.8865408,4.562515,8.653045,0.026267206,0.009162978,0.0062613687,20240202_130809_746
0.8865408,4.552943,8.653045,0.026267206,0.01160644,0.0050396384,20240202_130809_749
0.8769695,4.5242295,8.643474,0.026267206,0.009162978,0.0050396384,20240202_130809_750
0.8913264,4.529015,8.653045,0.026267206,0.007941248,0.0038179078,20240202_130809_753
0.9056834,4.543372,8.633903,0.028710667,0.007941248,0.003970624,20240202_130809_755
0.8817552,4.5338006,8.619545,0.027488936,0.0067195175,1.5271631E-4,20240202_130809_757
0.8865408,4.5098724,8.629117,0.027488936,0.007941248,-0.0010690142,20240202_130809_759
0.8913264,4.529015,8.609974,0.028710667,0.004276057,-0.0022907446,20240202_130809_761
0.8913264,4.529015,8.614759,0.027641652,6.1086525E-4,-0.0010690142,20240202_130809_764
0.8961121,4.5242295,8.595617,0.028710667,0.004276057,-0.0022907446,20240202_130809_766
0.8865408,4.519444,8.624331,0.028863383,0.0018325958,-0.0035124752,20240202_130809_768
0.8961121,4.529015,8.629117,0.027641652,6.1086525E-4,-0.0047342055,20240202_130809_770
0.8913264,4.543372,8.609974,0.026419923,0.004276057,-0.0047342055,20240202_130809_772
0.8865408,4.519444,8.633903,0.025198191,0.0018325958,-0.0035124752,20240202_130809_774
0.8961121,4.519444,8.609974,0.02397646,6.1086525E-4,-0.0035124752,20240202_130809_777
0.87218386,4.538586,8.614759,0.02397646,0.0018325958,-0.0035124752,20240202_130809_781
0.8673982,4.529015,8.609974,0.021533,6.1086525E-4,-0.0035124752,20240202_130809_782
0.8673982,4.538586,8.609974,0.019089539,-0.0030543262,-0.0022907446,20240202_130809_783
0.8578269,4.543372,8.624331,0.01786781,-6.1086525E-4,-0.0022907446,20240202_130809_785
0.8673982,4.557729,8.619545,0.016646078,-0.0018325958,-0.0010690142,20240202_130809_788
0.8817552,4.586443,8.619545,0.016646078,-0.0030543262,-0.0010690142,20240202_130809_789
0.87218386,4.581657,8.614759,0.014202617,-0.0018325958,1.5271631E-4,20240202_130809_792
0.8673982,4.5912285,8.609974,0.014202617,-0.0018325958,-0.0010690142,20240202_130809_794
0.8578269,4.6055856,8.590832,0.011759156,-0.005497787,-0.0010690142,20240202_130809_796
0.86261255,4.610371,8.595617,0.009315695,-0.0067195175,1.5271631E-4,20240202_130809_798
0.8578269,4.6007996,8.595617,0.006872234,-0.004276057,-0.0012217305,20240202_130809_800
0.8578269,4.581657,8.586046,0.004428773,-0.007941248,-0.0012217305,20240202_130809_803
0.84347,4.586443,8.576474,0.0032070426,-0.009162978,-0.002443461,20240202_130809_804
0.8578269,4.557729,8.581261,0.001985312,-0.0067195175,-0.002443461,20240202_130809_807
0.84347,4.562515,8.562118,0.001985312,-0.005497787,-0.0012217305,20240202_130809_809
0.84825563,4.557729,8.566903,-4.5814895E-4,-0.009162978,-0.0012217305,20240202_130809_811
0.8530413,4.5673003,8.557332,-4.5814895E-4,-0.005497787,-0.0012217305,20240202_130809_813
0.86261255,4.5673003,8.576474,-0.00290161,-0.004276057,-0.0012217305,20240202_130809_815
0.8578269,4.581657,8.586046,-0.00290161,-0.0067195175,-0.0012217305,20240202_130809_817
0.8530413,4.572086,8.595617,-0.0041233404,-0.004276057,-0.002443461,20240202_130809_820
0.8530413,4.586443,8.605188,-0.0053450707,0.0018325958,-0.0012217305,20240202_130809_822
0.8578269,4.581657,8.614759,-0.0053450707,-0.0030543262,-0.0012217305,20240202_130809_824
0.8530413,4.581657,8.581261,-0.0065668016,-6.1086525E-4,-0.0012217305,20240202_130809_825
0.8578269,4.5673003,8.586046,-0.007788532,0.0030543262,0.0012217305,20240202_130809_829
0.8673982,4.557729,8.590832,-0.0053450707,6.1086525E-4,0.0012217305,20240202_130809_830
0.87218386,4.557729,8.609974,-0.0065668016,0.0018325958,0.0036651916,20240202_130809_832
0.8673982,4.557729,8.614759,-0.0065668016,6.1086525E-4,0.004886922,20240202_130809_834
0.8769695,4.552943,8.638688,-0.0053450707,0.005497787,0.007330383,20240202_130809_837
0.86261255,4.552943,8.633903,-0.0053450707,0.0030543262,0.008552114,20240202_130809_839
0.86261255,4.581657,8.619545,-0.0041233404,0.0030543262,0.008552114,20240202_130809_841
0.8769695,4.552943,8.633903,-0.00290161,0.005497787,0.009773844,20240202_130809_843
0.8673982,4.557729,8.633903,-0.0016798794,0.0030543262,0.007330383,20240202_130809_845
0.8673982,4.5481577,8.633903,-0.0041233404,0.0030543262,0.009773844,20240202_130809_847
0.8817552,4.5338006,8.624331,-0.0016798794,0.004276057,0.009773844,20240202_130809_849
0.8817552,4.519444,8.653045,-4.5814895E-4,0.005497787,0.008552114,20240202_130809_852
0.8913264,4.5242295,8.662616,7.6358154E-4,0.005497787,0.009773844,20240202_130809_854
0.8865408,4.5242295,8.676973,-4.5814895E-4,0.0067195175,0.010995574,20240202_130809_856
0.8961121,4.519444,8.667402,7.6358154E-4,0.0067195175,0.010995574,20240202_130809_858
0.87218386,4.519444,8.676973,0.001985312,0.007788532,0.00992656,20240202_130809_860
0.8817552,4.5098724,8.672188,0.0056505036,0.009010263,0.00992656,20240202_130809_862
0.8578269,4.505087,8.676973,0.007941248,0.012675454,0.011148291,20240202_130809_864
0.8673982,4.519444,8.662616,0.01038471,0.007941248,0.012370021,20240202_130809_866
0.87218386,4.5098724,8.667402,0.015271631,0.01038471,0.012370021,20240202_130809_869
0.8530413,4.5242295,8.653045,0.017715093,0.009162978,0.014813482,20240202_130809_870
0.8769695,4.538586,8.648259,0.022602014,0.0067195175,0.016035212,20240202_130809_873
0.87218386,4.543372,8.65783,0.025045475,0.005497787,0.016035212,20240202_130809_876
0.8530413,4.5242295,8.638688,0.026267206,0.007941248,0.01740966,20240202_130809_877
0.84347,4.538586,8.676973,0.028710667,0.0030543262,0.01740966,20240202_130809_880
0.81954175,4.5338006,8.65783,0.031154128,0.004276057,0.01740966,20240202_130809_882
0.82911307,4.529015,8.69133,0.031154128,0.004276057,0.016187929,20240202_130809_883
0.83389866,4.538586,8.6961155,0.031154128,0.004276057,0.016187929,20240202_130809_886
0.82911307,4.562515,8.676973,0.03359759,0.0030543262,0.016187929,20240202_130809_888
0.83389866,4.572086,8.667402,0.032375857,0.005497787,0.014966198,20240202_130809_890
0.84347,4.572086,8.672188,0.03359759,0.004276057,0.013744468,20240202_130809_892
0.86261255,4.572086,8.648259,0.03481932,0.004276057,0.0125227375,20240202_130809_894
0.86261255,4.5912285,8.648259,0.03359759,0.004276057,0.011301007,20240202_130809_897
0.8673982,4.5912285,8.633903,0.03359759,0.0018325958,0.008857546,20240202_130809_899
0.8530413,4.596014,8.643474,0.032375857,6.1086525E-4,0.0076358155,20240202_130809_901
0.84347,4.596014,8.624331,0.031154128,0.0018325958,0.006414085,20240202_130809_903
0.84347,4.572086,8.624331,0.032375857,6.1086525E-4,0.006414085,20240202_130809_906
0.8386843,4.552943,8.600403,0.031154128,0.0030543262,0.005192355,20240202_130809_908
0.84825563,4.5673003,8.595617,0.031154128,0.0018325958,0.006414085,20240202_130809_909
0.84347,4.5338006,8.614759,0.029932396,0.0030543262,0.0076358155,20240202_130809_912
0.8578269,4.557729,8.614759,0.031154128,0.004276057,0.0076358155,20240202_130809_914
0.8530413,4.5768714,8.595617,0.031154128,0.004276057,0.010079277,20240202_130809_917
0.8673982,4.586443,8.624331,0.027488936,0.004276057,0.00870483,20240202_130809_918
0.84825563,4.6055856,8.609974,0.026267206,0.005497787,0.007483099,20240202_130809_920
0.84347,4.6295137,8.609974,0.026267206,0.007941248,0.007483099,20240202_130809_922
0.84347,4.6151567,8.605188,0.023823744,0.0067195175,0.00870483,20240202_130809_925
0.84347,4.596014,8.614759,0.021380283,0.007941248,0.007483099,20240202_130809_927
0.84825563,4.6007996,8.605188,0.020158553,0.01160644,0.00870483,20240202_130809_929
0.84347,4.572086,8.595617,0.020158553,0.009162978,0.007483099,20240202_130809_931
0.8530413,4.586443,8.590832,0.016493361,0.007941248,0.00992656,20240202_130809_932
0.84347,4.5912285,8.571689,0.015271631,0.009162978,0.00870483,20240202_130809_935
0.82911307,4.5912285,8.566903,0.01282817,0.0067195175,0.00992656,20240202_130809_937
0.83389866,4.5912285,8.566903,0.01160644,0.004276057,0.00992656,20240202_130809_940
0.82911307,4.586443,8.557332,0.011759156,0.0030543262,0.00870483,20240202_130809_942
0.8386843,4.586443,8.562118,0.010537425,0.0030543262,0.00870483,20240202_130809_946
0.8386843,4.596014,8.571689,0.008093964,0.0018325958,0.00870483,20240202_130809_947
0.84347,4.586443,8.586046,0.006872234,6.1086525E-4,0.0062613687,20240202_130809_948
0.83389866,4.5912285,8.562118,0.0056505036,0.0030543262,0.00870483,20240202_130809_950
0.84347,4.6007996,8.571689,0.0056505036,0.0030543262,0.0062613687,20240202_130809_953
0.84347,4.6007996,8.586046,0.0032070426,0.0018325958,0.008552114,20240202_130809_954
0.8673982,4.6055856,8.586046,7.6358154E-4,0.0030543262,0.008552114,20240202_130809_957
0.8817552,4.6151567,8.590832,-4.5814895E-4,0.005497787,0.009773844,20240202_130809_959
0.8817552,4.6151567,8.614759,-4.5814895E-4,0.004276057,0.009773844,20240202_130809_961
0.8865408,4.6151567,8.609974,-0.00290161,0.0067195175,0.008552114,20240202_130809_963
0.87218386,4.6295137,8.609974,-0.0041233404,0.005497787,0.008552114,20240202_130809_965
0.8769695,4.624728,8.605188,-0.00290161,0.004276057,0.007330383,20240202_130809_968
0.8673982,4.624728,8.586046,-0.0053450707,0.005497787,0.0061086523,20240202_130809_970
0.87218386,4.610371,8.586046,-0.007788532,0.005497787,0.004886922,20240202_130809_972
0.87218386,4.6007996,8.595617,-0.007788532,0.0018325958,0.004886922,20240202_130809_974
0.8673982,4.596014,8.581261,-0.009010263,0.0030543262,0.0061086523,20240202_130809_977
0.8673982,4.581657,8.590832,-0.010231993,0.0030543262,0.004886922,20240202_130809_979
0.8673982,4.5768714,8.586046,-0.010231993,-6.1086525E-4,0.007330383,20240202_130809_981
0.87218386,4.5768714,8.576474,-0.013897184,-6.1086525E-4,0.007330383,20240202_130809_982
0.8673982,4.572086,8.586046,-0.013897184,6.1086525E-4,0.007330383,20240202_130809_985
0.86261255,4.5768714,8.586046,-0.015118915,-0.004276057,0.0061086523,20240202_130809_987
0.86261255,4.572086,8.581261,-0.016340645,-0.007941248,0.007330383,20240202_130809_989
0.8673982,4.557729,8.581261,-0.015118915,-0.004276057,0.0061086523,20240202_130809_991
0.87218386,4.562515,8.571689,-0.016340645,-0.01038471,0.007330383,20240202_130809_993
0.8769695,4.5673003,8.581261,-0.017562376,-0.01282817,0.008399397,20240202_130809_995
0.8769695,4.572086,8.609974,-0.017562376,-0.007941248,0.008552114,20240202_130809_998
0.8817552,4.5673003,8.609974,-0.018784106,-0.014049901,0.008399397,20240202_130809_999
0.8913264,4.586443,8.624331,-0.018784106,-0.01160644,0.0096211275,20240202_130810_001
0.87218386,4.586443,8.619545,-0.01985312,-0.01282817,0.005955936,20240202_130810_004
0.8673982,4.581657,8.614759,-0.020005837,-0.015271631,0.0096211275,20240202_130810_006
0.87218386,4.581657,8.624331,-0.01985312,-0.018936822,0.005955936,20240202_130810_008
0.87218386,4.5673003,8.614759,-0.01985312,-0.016493361,0.0071776668,20240202_130810_011
0.87218386,4.5673003,8.614759,-0.01863139,-0.015271631,0.005955936,20240202_130810_014
0.8913264,4.572086,8.624331,-0.01740966,-0.021227567,0.0047342055,20240202_130810_015
0.9056834,4.557729,8.629117,-0.014966198,-0.016493361,0.0047342055,20240202_130810_017
0.910469,4.581657,8.614759,-0.011453724,-0.014049901,0.004886922,20240202_130810_021
0.9200403,4.5912285,8.629117,-0.010231993,-0.016493361,0.0036651916,20240202_130810_022
0.910469,4.596014,8.629117,-0.010079277,-0.014049901,0.0012217305,20240202_130810_023
0.9056834,4.596014,8.643474,-0.007788532,-0.01160644,-0.0,20240202_130810_026
0.9056834,4.572086,8.653045,-0.007788532,-0.009162978,-0.0012217305,20240202_130810_028
0.910469,4.5673003,8.662616,-0.0065668016,-0.0067195175,-0.002443461,20240202_130810_029
0.8913264,4.562515,8.65783,-0.0053450707,-0.004276057,-0.002443461,20240202_130810_032
0.8913264,4.552943,8.65783,-0.0041233404,-0.0030543262,-0.0012217305,20240202_130810_034
0.8913264,4.538586,8.638688,-4.5814895E-4,-6.1086525E-4,-0.0012217305,20240202_130810_036
0.9056834,4.5481577,8.614759,-4.5814895E-4,0.0018325958,-0.002443461,20240202_130810_038
0.91525465,4.538586,8.619545,-4.5814895E-4,-0.0018325958,-0.002443461,20240202_130810_040
0.90089774,4.538586,8.619545,7.6358154E-4,-6.1086525E-4,-0.0012217305,20240202_130810_042
0.90089774,4.543372,8.624331,0.0056505036,0.0018325958,-0.0012217305,20240202_130810_044
0.8961121,4.543372,8.643474,0.0056505036,0.0018325958,-0.0012217305,20240202_130810_046
0.8961121,4.543372,8.648259,0.008093964,0.005497787,-0.0022907446,20240202_130810_049
0.8865408,4.557729,8.633903,0.006872234,0.0067195175,-0.0022907446,20240202_130810_051
0.8913264,4.543372,8.638688,0.009315695,0.005497787,-0.0035124752,20240202_130810_053
0.8865408,4.5481577,8.662616,0.010537425,0.0067195175,-0.0047342055,20240202_130810_056
0.8769695,4.543372,8.648259,0.011759156,0.0067195175,-0.0047342055,20240202_130810_058
0.8769695,4.5338006,8.643474,0.011759156,0.0067195175,-0.005955936,20240202_130810_060
0.8817552,4.5338006,8.629117,0.016646078,0.01160644,-0.0047342055,20240202_130810_062
0.8817552,4.538586,8.629117,0.016646078,0.007941248,-0.0047342055,20240202_130810_063
0.8673982,4.5481577,8.614759,0.01786781,0.0067195175,-0.005955936,20240202_130810_066
0.8578269,4.543372,8.619545,0.019089539,0.009162978,-0.005955936,20240202_130810_068
0.8673982,4.557729,8.624331,0.02275473,0.009162978,-0.0071776668,20240202_130810_071
0.8865408,4.552943,8.629117,0.021533,0.007941248,-0.005955936,20240202_130810_072
0.86261255,4.557729,8.638688,0.02275473,0.01038471,-0.005955936,20240202_130810_075
0.8578269,4.552943,8.653045,0.02397646,0.01160644,-0.005955936,20240202_130810_077
0.8769695,4.5481577,8.653045,0.026419923,0.009162978,-0.0071776668,20240202_130810_081
0.8530413,4.572086,8.633903,0.027641652,0.01160644,-0.0047342055,20240202_130810_082
0.8578269,4.581657,8.653045,0.027641652,0.01038471,-0.005955936,20240202_130810_083
0.8530413,4.581657,8.624331,0.031154128,0.01160644,-0.004581489,20240202_130810_085
0.8578269,4.5673003,8.619545,0.03359759,0.01282817,-0.00580322,20240202_130810_088
0.84825563,4.557729,8.633903,0.03359759,0.01282817,-0.0033597588,20240202_130810_090
0.8769695,4.5673003,8.643474,0.03481932,0.01160644,-0.0033597588,20240202_130810_092
0.86261255,4.562515,8.638688,0.03481932,0.01282817,-0.0021380284,20240202_130810_094
0.8673982,4.5768714,8.624331,0.03970624,0.015271631,-0.0021380284,20240202_130810_096
0.86261255,4.5768714,8.624331,0.040927973,0.016493361,-0.0021380284,20240202_130810_098
0.8578269,4.5673003,8.624331,0.04337143,0.016493361,-9.162979E-4,20240202_130810_100
0.8578269,4.5768714,8.624331,0.04337143,0.018936822,-0.0033597588,20240202_130810_103
0.86261255,4.581657,8.614759,0.044593163,0.021380283,-9.162979E-4,20240202_130810_104
0.8578269,4.5768714,8.609974,0.044593163,0.021380283,-9.162979E-4,20240202_130810_107
0.8578269,4.581657,8.605188,0.045814894,0.022602014,3.0543262E-4,20240202_130810_108
0.8673982,4.562515,8.614759,0.049480084,0.022602014,-0.0021380284,20240202_130810_111
0.87218386,4.572086,8.619545,0.047036625,0.021380283,-9.162979E-4,20240202_130810_114
0.8769695,4.5768714,8.609974,0.048258353,0.023823744,-9.162979E-4,20240202_130810_116
0.84347,4.5673003,8.619545,0.048258353,0.024892759,3.0543262E-4,20240202_130810_118
0.8578269,4.572086,8.600403,0.048258353,0.024892759,0.0015271631,20240202_130810_120
0.84347,4.5673003,8.619545,0.044593163,0.02367103,0.0015271631,20240202_130810_122
0.8386843,4.552943,8.614759,0.044593163,0.024892759,0.0027488936,20240202_130810_124
0.84825563,4.562515,8.590832,0.0421497,0.02733622,0.0027488936,20240202_130810_126
0.84825563,4.562515,8.586046,0.04337143,0.02367103,0.003970624,20240202_130810_129
0.84347,4.557729,8.5525465,0.0421497,0.021380283,0.003970624,20240202_130810_130
0.84347,4.5481577,8.586046,0.03848451,0.022449298,0.006414085,20240202_130810_132
0.84347,4.5673003,8.576474,0.03848451,0.018936822,0.0076358155,20240202_130810_134
0.8386843,4.5768714,8.590832,0.03604105,0.018936822,0.0076358155,20240202_130810_137
0.8530413,4.586443,8.576474,0.03359759,0.017715093,0.0076358155,20240202_130810_139
0.84347,4.581657,8.576474,0.029932396,0.014049901,0.0076358155,20240202_130810_141
0.8530413,4.6151567,8.595617,0.028710667,0.01160644,0.0076358155,20240202_130810_143
0.8386843,4.6055856,8.590832,0.026267206,0.01282817,0.007483099,20240202_130810_145
0.8243274,4.610371,8.581261,0.022602014,0.009162978,0.00870483,20240202_130810_148
0.8147561,4.610371,8.576474,0.021380283,0.005497787,0.007483099,20240202_130810_150
0.8147561,4.6151567,8.562118,0.020158553,0.007941248,0.0062613687,20240202_130810_152
0.8386843,4.6151567,8.562118,0.016646078,0.0018325958,0.0062613687,20240202_130810_154
0.84825563,4.6295137,8.542975,0.014202617,-0.0018325958,0.0050396384,20240202_130810_157
0.86261255,4.624728,8.576474,0.011759156,6.1086525E-4,0.0062613687,20240202_130810_158
0.84347,4.6342993,8.581261,0.008093964,-0.0030543262,0.0050396384,20240202_130810_160
0.8243274,4.6438704,8.581261,0.006872234,-0.005497787,0.0036651916,20240202_130810_162
