acc_x,acc_y,acc_z,gyro_x,gyro_y,gyro_z,timestamp
0.96729857,4.5852466,8.52144,0.016798794,0.0021380284,-0.0061086523,20240202_130817_733
0.9529416,4.6091747,8.531011,0.008246681,9.162979E-4,-0.007330383,20240202_130817_734
0.9290134,4.6283174,8.526225,-0.0015271631,-0.003970624,-0.007330383,20240202_130817_734
0.9242278,4.6378884,8.550154,-0.006414085,-0.011301007,-0.0062613687,20240202_130817_735
0.9242278,4.64746,8.559725,-0.010079277,-0.0076358155,-0.0050396384,20240202_130817_735
0.9098708,4.6522455,8.56451,-0.011301007,-0.0076358155,-0.0050396384,20240202_130817_739
0.9194421,4.685745,8.56451,-0.013744468,-0.011301007,-0.0038179078,20240202_130817_740
0.90508515,4.7096734,8.554939,-0.016187929,-0.0125227375,-0.0038179078,20240202_130817_742
0.8955139,4.738387,8.550154,-0.013744468,-0.010079277,-0.0025961774,20240202_130817_742
0.8859426,4.747958,8.526225,-0.0125227375,-0.011301007,-0.0025961774,20240202_130817_744
0.8859426,4.7575297,8.52144,-0.008857546,-0.008857546,-0.0025961774,20240202_130817_746
0.87637126,4.7623153,8.535796,-0.0076358155,-0.008857546,-0.0038179078,20240202_130817_749
0.87637126,4.7575297,8.56451,-0.006414085,-0.006414085,-0.0038179078,20240202_130817_751
0.8853444,4.767101,8.578269,-3.0543262E-4,-0.005192355,-0.002443461,20240202_130817_753
0.87637126,4.7718863,8.583055,0.0033597588,-3.0543262E-4,-0.0012217305,20240202_130817_755
0.87158567,4.767101,8.568698,0.004581489,0.0033597588,-0.002443461,20240202_130817_757
0.8668,4.781458,8.563912,0.009468411,0.0033597588,-0.0012217305,20240202_130817_759
0.86201435,4.767101,8.56451,0.010537425,0.0070249503,-0.0,20240202_130817_761
0.86201435,4.7718863,8.531011,0.011759156,0.00580322,0.0012217305,20240202_130817_763
0.8380861,4.7575297,8.535796,0.0154243475,0.0070249503,0.0038179078,20240202_130817_766
0.85244304,4.7623153,8.526225,0.0154243475,0.0070249503,0.0038179078,20240202_130817_769
0.84765744,4.767101,8.540583,0.014202617,0.004581489,0.0050396384,20240202_130817_770
0.84765744,4.7575297,8.525627,0.0154243475,0.00580322,0.0062613687,20240202_130817_772
0.8380861,4.7766724,8.544769,0.012980887,0.006872234,0.007483099,20240202_130817_774
0.85244304,4.7623153,8.535198,0.009315695,0.004581489,0.008552114,20240202_130817_777
0.8380861,4.747958,8.5112705,0.0056505036,0.0021380284,0.010995574,20240202_130817_779
0.8428718,4.7336016,8.5112705,0.0032070426,0.0033597588,0.010995574,20240202_130817_782
0.85244304,4.7192445,8.502297,7.6358154E-4,-0.0015271631,0.012217305,20240202_130817_783
0.8428718,4.7096734,8.516654,-4.5814895E-4,-0.0027488936,0.014660766,20240202_130817_785
0.8428718,4.7048874,8.502297,-0.0041233404,-0.003970624,0.015882496,20240202_130817_789
0.85244304,4.7048874,8.48794,-0.0053450707,-0.003970624,0.015882496,20240202_130817_789
0.8380861,4.700102,8.507083,-0.010079277,-0.008857546,0.01450805,20240202_130817_792
0.8668,4.7096734,8.506484,-0.0125227375,-0.0076358155,0.01572978,20240202_130817_794
0.86201435,4.6953163,8.502297,-0.014966198,-0.0076358155,0.01817324,20240202_130817_797
0.86201435,4.680959,8.526225,-0.01740966,-0.0125227375,0.01572978,20240202_130817_798
0.8668,4.6953163,8.520842,-0.022296581,-0.010079277,0.020616703,20240202_130817_800
0.87637126,4.671388,8.507083,-0.01985312,-0.010079277,0.01817324,20240202_130817_803
0.87637126,4.666602,8.531011,-0.02107485,-0.013744468,0.019394971,20240202_130817_805
0.87637126,4.6618166,8.531011,-0.023518313,-0.016187929,0.019394971,20240202_130817_807
0.87158567,4.657031,8.540583,-0.024740042,-0.013744468,0.01695151,20240202_130817_810
0.87637126,4.657031,8.545368,-0.024740042,-0.0125227375,0.01817324,20240202_130817_811
0.8668,4.666602,8.550154,-0.025961773,-0.01740966,0.01695151,20240202_130817_813
0.8811569,4.671388,8.578269,-0.024740042,-0.0125227375,0.01695151,20240202_130817_816
0.8811569,4.6618166,8.573483,-0.027183503,-0.0125227375,0.01450805,20240202_130817_818
0.87158567,4.6618166,8.578269,-0.027183503,-0.014966198,0.01450805,20240202_130817_820
0.8859426,4.657031,8.563912,-0.028405234,-0.013744468,0.01450805,20240202_130817_822
0.8811569,4.671388,8.58784,-0.027183503,-0.014966198,0.012064588,20240202_130817_824
0.8811569,4.64746,8.578269,-0.025961773,-0.014966198,0.013286319,20240202_130817_826
0.8811569,4.6235313,8.554939,-0.025961773,-0.014966198,0.012064588,20240202_130817_828
0.87637126,4.6378884,8.578269,-0.025961773,-0.01740966,0.010842858,20240202_130817_830
0.8811569,4.6235313,8.597412,-0.024740042,-0.01863139,0.010842858,20240202_130817_832
0.8811569,4.6091747,8.606983,-0.024740042,-0.014966198,0.008399397,20240202_130817_835
0.87158567,4.6378884,8.602198,-0.022296581,-0.013744468,0.0096211275,20240202_130817_836
0.8859426,4.6522455,8.611769,-0.024740042,-0.01863139,0.008399397,20240202_130817_840
0.8859426,4.657031,8.602198,-0.02107485,-0.01740966,0.0096211275,20240202_130817_841
0.90029955,4.6618166,8.606983,-0.023518313,-0.01863139,0.005955936,20240202_130817_844
0.90508515,4.666602,8.606983,-0.022296581,-0.01985312,0.005955936,20240202_130817_845
0.90029955,4.657031,8.592627,-0.02107485,-0.02107485,0.0047342055,20240202_130817_847
0.90508515,4.666602,8.616554,-0.022296581,-0.01985312,0.0035124752,20240202_130817_850
0.90029955,4.6618166,8.606983,-0.02107485,-0.01863139,0.0022907446,20240202_130817_851
0.8955139,4.642674,8.626125,-0.022296581,-0.01985312,0.0010690142,20240202_130817_854
0.90508515,4.633103,8.635697,-0.01863139,-0.016187929,0.0010690142,20240202_130817_856
0.90029955,4.6235313,8.611769,-0.02107485,-0.01740966,-0.0013744468,20240202_130817_858
0.91465646,4.6235313,8.602198,-0.01985312,-0.01863139,-0.0013744468,20240202_130817_860
0.9242278,4.6091747,8.597412,-0.01740966,-0.014966198,-0.0013744468,20240202_130817_862
0.9194421,4.599603,8.583653,-0.016187929,-0.014966198,-0.0025961774,20240202_130817_864
0.9242278,4.590032,8.554939,-0.0125227375,-0.01863139,-0.0038179078,20240202_130817_867
0.91465646,4.5948176,8.59801,-0.0125227375,-0.013744468,-0.0025961774,20240202_130817_869
0.9242278,4.599603,8.583653,-0.010079277,-0.0125227375,-0.0038179078,20240202_130817_871
0.9194421,4.6235313,8.58784,-0.010079277,-0.013744468,-0.0050396384,20240202_130817_875
0.94337034,4.604389,8.611769,-0.0076358155,-0.010079277,-0.0050396384,20240202_130817_876
0.933799,4.6091747,8.626125,-0.005192355,-0.010079277,-0.0050396384,20240202_130817_877
0.9290134,4.6235313,8.616554,-0.005192355,-0.006414085,-0.0062613687,20240202_130817_880
0.9242278,4.6139603,8.62134,-0.0027488936,-0.003970624,-0.0061086523,20240202_130817_882
0.94337034,4.633103,8.597412,-0.003970624,-0.008857546,-0.007483099,20240202_130817_884
0.933799,4.642674,8.602198,-3.0543262E-4,-0.003970624,-0.007330383,20240202_130817_886
0.9290134,4.618746,8.606983,9.162979E-4,-0.0015271631,-0.007330383,20240202_130817_888
0.933799,4.6522455,8.611769,0.0021380284,-0.0015271631,-0.008552114,20240202_130817_890
0.9290134,4.64746,8.602198,0.00580322,-3.0543262E-4,-0.008552114,20240202_130817_892
0.948156,4.6618166,8.602198,0.004581489,-0.0015271631,-0.008552114,20240202_130817_895
0.9242278,4.6761737,8.611769,0.0070249503,-3.0543262E-4,-0.008552114,20240202_130817_897
0.9194421,4.6618166,8.611769,0.0070249503,-0.0027488936,-0.008552114,20240202_130817_899
0.9098708,4.657031,8.602198,0.00580322,-3.0543262E-4,-0.009773844,20240202_130817_901
0.90029955,4.64746,8.597412,0.0070249503,-0.0015271631,-0.009773844,20240202_130817_904
0.9098708,4.633103,8.56451,0.008246681,-0.003970624,-0.008552114,20240202_130817_906
0.90029955,4.642674,8.574081,0.0070249503,-0.003970624,-0.008552114,20240202_130817_908
0.9098708,4.633103,8.569296,0.008246681,-0.0015271631,-0.007330383,20240202_130817_910
0.8859426,4.642674,8.574081,0.009468411,-0.005192355,-0.0061086523,20240202_130817_912
0.89072824,4.64746,8.574081,0.0106901415,-0.003970624,-0.0061086523,20240202_130817_915
0.8955139,4.6522455,8.606983,0.011911872,-0.003970624,-0.0061086523,20240202_130817_916
0.89072824,4.671388,8.592627,0.0106901415,-0.003970624,-0.004886922,20240202_130817_918
0.8955139,4.671388,8.616554,0.0106901415,-0.005192355,-0.0036651916,20240202_130817_920
0.8955139,4.666602,8.606983,0.009468411,-0.0027488936,-0.004886922,20240202_130817_923
0.8955139,4.685745,8.597412,0.0106901415,-3.0543262E-4,-0.0036651916,20240202_130817_925
0.8811569,4.6953163,8.602198,0.009468411,-0.0027488936,-0.004886922,20240202_130817_928
0.8811569,4.6761737,8.559725,0.011911872,-0.0015271631,-0.004886922,20240202_130817_929
0.8859426,4.680959,8.563912,0.0106901415,-0.0015271631,-0.0036651916,20240202_130817_932
0.8811569,4.680959,8.56451,0.0106901415,-0.0015271631,-0.004886922,20240202_130817_933
0.8811569,4.6618166,8.56451,0.009468411,-0.003970624,-0.004886922,20240202_130817_935
0.87158567,4.671388,8.559725,0.011911872,-0.0015271631,-0.004886922,20240202_130817_938
0.8668,4.6522455,8.545368,0.011911872,-0.003970624,-0.004886922,20240202_130817_940
0.86201435,4.6618166,8.545368,0.008246681,-0.003970624,-0.002443461,20240202_130817_942
0.87158567,4.671388,8.550154,0.008246681,-0.003970624,-0.002443461,20240202_130817_945
0.8811569,4.6761737,8.559725,0.00580322,-0.0015271631,-0.002443461,20240202_130817_946
0.8668,4.680959,8.540583,0.00580322,-0.0015271631,-0.0012217305,20240202_130817_948
0.86201435,4.690531,8.574081,0.0070249503,-3.0543262E-4,-0.002443461,20240202_130817_951
0.87158567,4.6953163,8.563912,0.0021380284,-3.0543262E-4,-0.0012217305,20240202_130817_952
0.8572287,4.685745,8.578867,0.0021380284,0.0021380284,0.0012217305,20240202_130817_954
0.8572287,4.6761737,8.554939,9.162979E-4,9.162979E-4,0.0012217305,20240202_130817_957
0.8428718,4.6953163,8.554939,-3.0543262E-4,0.0021380284,-0.0,20240202_130817_959
0.84765744,4.685745,8.559725,-0.0027488936,0.0021380284,0.0012217305,20240202_130817_961
0.8668,4.6761737,8.535796,-0.0027488936,-3.0543262E-4,-0.0,20240202_130817_963
0.8572287,4.666602,8.550154,-0.005192355,-0.0015271631,-0.0,20240202_130817_966
0.84765744,4.657031,8.550154,-0.0076358155,-0.003970624,0.0022907446,20240202_130817_968
0.86201435,4.666602,8.545368,-0.006414085,-0.0015271631,0.002443461,20240202_130817_970
0.87637126,4.671388,8.531011,-0.008857546,-0.0027488936,0.0035124752,20240202_130817_972
0.87158567,4.6761737,8.545368,-0.0076358155,-0.003970624,0.0036651916,20240202_130817_975
0.86201435,4.6618166,8.574081,-0.0076358155,-0.003970624,0.0035124752,20240202_130817_977
0.87158567,4.666602,8.554939,-0.008857546,-0.0027488936,0.0035124752,20240202_130817_979
0.8668,4.6761737,8.569296,-0.011301007,-0.005192355,0.0022907446,20240202_130817_980
0.87158567,4.666602,8.602796,-0.0125227375,-0.0027488936,0.0035124752,20240202_130817_983
0.87158567,4.680959,8.569296,-0.011301007,-3.0543262E-4,0.0035124752,20240202_130817_985
0.8811569,4.666602,8.569296,-0.0125227375,-0.006414085,0.0022907446,20240202_130817_987
0.8811569,4.6618166,8.569296,-0.0125227375,-0.003970624,0.0035124752,20240202_130817_990
0.8811569,4.6522455,8.550154,-0.011301007,-0.003970624,0.0022907446,20240202_130817_991
0.87158567,4.657031,8.56451,-0.0125227375,-0.006414085,0.0010690142,20240202_130817_994
0.87158567,4.6618166,8.574081,-0.016187929,-0.006414085,-1.5271631E-4,20240202_130817_996
0.8428718,4.671388,8.588439,-0.013744468,-0.008857546,-0.0013744468,20240202_130817_998
0.78065836,4.6761737,8.559725,-0.014966198,-0.010079277,-0.0050396384,20240202_130818_001
0.8428718,4.6283174,8.626724,-0.016187929,-0.011301007,-0.0062613687,20240202_130818_002
0.91465646,4.6091747,8.583653,-0.014966198,-0.0076358155,-0.0062613687,20240202_130818_005
0.95772725,4.6139603,8.569296,-0.014966198,-0.011301007,-0.0038179078,20240202_130818_006
0.9816555,4.618746,8.559725,-0.016187929,-0.0125227375,0.0010690142,20240202_130818_019
0.94337034,4.6235313,8.559725,-0.016187929,-0.0125227375,0.0010690142,20240202_130818_020
0.91465646,4.642674,8.583653,-0.014966198,-0.014966198,0.0035124752,20240202_130818_020
0.8811569,4.642674,8.612367,-0.013744468,-0.014966198,0.0035124752,20240202_130818_021
0.87637126,4.642674,8.607581,-0.014966198,-0.011301007,0.0035124752,20240202_130818_021
0.8572287,4.6283174,8.617152,-0.0125227375,-0.008857546,0.0047342055,20240202_130818_022
0.87637126,4.633103,8.626724,-0.0125227375,-0.008857546,0.0047342055,20240202_130818_022
0.87637126,4.6235313,8.612367,-0.0125227375,-0.006414085,0.0047342055,20240202_130818_025
0.8955139,4.633103,8.602796,-0.0076358155,-0.0027488936,0.004886922,20240202_130818_026
0.9098708,4.6283174,8.588439,-0.005192355,-0.005192355,0.004886922,20240202_130818_028
0.9194421,4.633103,8.612367,-0.005192355,-0.0015271631,0.008552114,20240202_130818_030
0.91465646,4.642674,8.617152,-0.00290161,0.004581489,0.008552114,20240202_130818_032
0.91465646,4.642674,8.626724,0.001985312,0.004581489,0.010995574,20240202_130818_034
0.9098708,4.64746,8.607581,0.0032070426,0.0070249503,0.012217305,20240202_130818_037
0.91465646,4.642674,8.617152,0.004428773,0.009468411,0.013439035,20240202_130818_039
0.89072824,4.657031,8.617152,0.008093964,0.011911872,0.013439035,20240202_130818_041
0.8955139,4.642674,8.626724,0.010537425,0.011911872,0.014813482,20240202_130818_043
0.8955139,4.6522455,8.612367,0.011759156,0.011759156,0.013591751,20240202_130818_045
0.89072824,4.6522455,8.611769,0.0154243475,0.012980887,0.013591751,20240202_130818_048
0.89072824,4.6618166,8.58784,0.01786781,0.011759156,0.012370021,20240202_130818_049
0.89072824,4.6761737,8.592627,0.01786781,0.011759156,0.012370021,20240202_130818_051
0.8955139,4.685745,8.597412,0.016646078,0.0106901415,0.007483099,20240202_130818_054
0.89072824,4.685745,8.597412,0.01786781,0.008246681,0.007483099,20240202_130818_056
0.8955139,4.680959,8.602198,0.016646078,0.009468411,0.0050396384,20240202_130818_057
0.90508515,4.680959,8.592627,0.014202617,0.008246681,0.0038179078,20240202_130818_061
0.8955139,4.671388,8.597412,0.010537425,0.0070249503,0.0012217305,20240202_130818_063
0.90029955,4.642674,8.602198,0.008246681,0.0033597588,-0.0,20240202_130818_065
0.8859426,4.6378884,8.569296,0.008246681,0.0033597588,-0.0,20240202_130818_067
0.8811569,4.6283174,8.583653,0.004581489,9.162979E-4,-0.002443461,20240202_130818_069
0.8859426,4.618746,8.550154,0.00580322,-0.003970624,-0.0,20240202_130818_071
0.8811569,4.6139603,8.535796,0.004581489,-0.0076358155,-0.0,20240202_130818_073
0.8811569,4.6283174,8.531011,0.0033597588,-0.010079277,-0.0012217305,20240202_130818_075
0.89072824,4.6378884,8.535796,0.0021380284,-0.013744468,-0.0,20240202_130818_077
0.8955139,4.6522455,8.554939,9.162979E-4,-0.013744468,0.0012217305,20240202_130818_079
0.90508515,4.6522455,8.569296,-0.0015271631,-0.016187929,0.0012217305,20240202_130818_081
0.89072824,4.6618166,8.559725,-0.0015271631,-0.014966198,0.0012217305,20240202_130818_084
0.8811569,4.666602,8.56451,-0.0027488936,-0.016187929,0.0022907446,20240202_130818_086
0.8955139,4.657031,8.550154,-0.005192355,-0.01740966,0.0010690142,20240202_130818_088
0.87637126,4.657031,8.550154,-0.005192355,-0.016187929,0.0022907446,20240202_130818_090
0.90029955,4.64746,8.550154,-0.003970624,-0.014966198,0.0010690142,20240202_130818_092
0.90029955,4.666602,8.554939,-0.003970624,-0.016187929,0.0010690142,20240202_130818_094
0.9242278,4.6618166,8.559127,-0.003970624,-0.014966198,0.0035124752,20240202_130818_097
0.9098708,4.6761737,8.563912,-0.003970624,-0.016187929,0.0010690142,20240202_130818_099
0.91465646,4.671388,8.559127,-0.003970624,-0.014966198,0.0010690142,20240202_130818_101
0.9242278,4.680959,8.554341,-0.0027488936,-0.0125227375,-0.0012217305,20240202_130818_103
0.9290134,4.671388,8.573483,-0.003970624,-0.0125227375,-1.5271631E-4,20240202_130818_105
0.9098708,4.685745,8.58784,-0.0015271631,-0.010079277,-0.0,20240202_130818_107
0.9242278,4.666602,8.559127,-0.0027488936,-0.006414085,-0.0,20240202_130818_109
0.9194421,4.6522455,8.568698,-0.0027488936,-0.0076358155,-0.0,20240202_130818_113
0.91465646,4.64746,8.569296,-0.0015271631,-0.0076358155,0.002443461,20240202_130818_114
0.9098708,4.64746,8.574081,-0.0015271631,-0.003970624,0.0036651916,20240202_130818_116
0.9242278,4.657031,8.602796,9.162979E-4,-0.0027488936,0.0036651916,20240202_130818_118
0.93320084,4.6761737,8.602198,9.162979E-4,-3.0543262E-4,0.004886922,20240202_130818_120
0.93320084,4.690531,8.58784,0.004428773,0.0033597588,0.004886922,20240202_130818_122
0.94277215,4.690531,8.583055,0.0021380284,0.0021380284,0.0061086523,20240202_130818_124
0.9284152,4.6953163,8.578269,9.162979E-4,0.0021380284,0.0061086523,20240202_130818_127
0.9379865,4.690531,8.573483,0.001985312,0.0033597588,0.007330383,20240202_130818_129
0.9290134,4.6761737,8.569296,0.0033597588,0.0033597588,0.0036651916,20240202_130818_131
0.9194421,4.666602,8.574081,0.004581489,0.0021380284,0.0036651916,20240202_130818_133
0.933799,4.680959,8.574081,0.00580322,0.004581489,-0.0,20240202_130818_135
0.933799,4.685745,8.569296,0.004581489,0.00580322,-0.0,20240202_130818_137
0.9242278,4.680959,8.583653,0.0021380284,0.004581489,-0.002443461,20240202_130818_140
0.9379865,4.680959,8.592627,-0.0015271631,0.00580322,-0.0036651916,20240202_130818_141
0.933799,4.666602,8.578867,-0.0027488936,0.008246681,-0.0061086523,20240202_130818_144
0.933799,4.657031,8.612367,-0.0027488936,0.008246681,-0.008552114,20240202_130818_146
0.9385847,4.6283174,8.607581,-0.0076358155,0.0070249503,-0.008552114,20240202_130818_148
0.9098708,4.6139603,8.583653,-0.008857546,0.009315695,-0.009773844,20240202_130818_150
0.90508515,4.599603,8.574081,-0.0125227375,0.008093964,-0.00992656,20240202_130818_153
0.90508515,4.599603,8.574081,-0.0125227375,0.010537425,-0.011148291,20240202_130818_155
0.90029955,4.5948176,8.56451,-0.014966198,0.00580322,-0.011148291,20240202_130818_156
0.8859426,4.6091747,8.578867,-0.016187929,0.009315695,-0.012370021,20240202_130818_158
0.8859426,4.6139603,8.583653,-0.01863139,0.006872234,-0.011148291,20240202_130818_161
0.87158567,4.618746,8.593225,-0.01985312,0.006872234,-0.011148291,20240202_130818_163
0.87637126,4.618746,8.588439,-0.01863139,0.009315695,-0.011148291,20240202_130818_165
0.8668,4.633103,8.607581,-0.02107485,0.009315695,-0.00992656,20240202_130818_167
0.86201435,4.6139603,8.602796,-0.01985312,0.008093964,-0.00870483,20240202_130818_169
0.84765744,4.618746,8.593225,-0.01985312,0.009315695,-0.0062613687,20240202_130818_172
0.8572287,4.633103,8.583653,-0.01740966,0.008093964,-0.007483099,20240202_130818_174
0.86201435,4.6283174,8.583653,-0.01740966,0.006872234,-0.0062613687,20240202_130818_176
0.8572287,4.6378884,8.602796,-0.0125227375,0.00580322,-0.0038179078,20240202_130818_178
0.8572287,4.6522455,8.588439,-0.011301007,0.008246681,-0.0038179078,20240202_130818_180
0.84765744,4.6618166,8.612367,-0.010079277,0.004581489,-0.0013744468,20240202_130818_183
0.84765744,4.680959,8.626724,-0.005192355,0.00580322,-0.002443461,20240202_130818_185
0.8428718,4.680959,8.621938,-0.0027488936,0.0070249503,-0.0012217305,20240202_130818_187
0.85244304,4.690531,8.621938,-3.0543262E-4,0.004581489,0.0012217305,20240202_130818_189
0.8859426,4.690531,8.607581,0.0033597588,0.0106901415,-0.0,20240202_130818_191
1.0049855,4.7575297,8.539984,0.004581489,-3.0543262E-4,-0.0012217305,20240202_130818_193
0.87637126,4.7341995,8.330612,0.008246681,-0.018478673,-0.0,20240202_130818_195
0.718445,4.6235313,8.555537,0.013133603,-0.014813482,-0.0,20240202_130818_198
0.6897311,4.5852466,8.68475,0.0143553335,-0.012370021,0.0012217305,20240202_130818_200
0.8045866,4.627719,8.760722,0.016646078,-0.005192355,0.0012217305,20240202_130818_201
0.91884387,4.685147,8.73141,0.016646078,-3.0543262E-4,0.004886922,20240202_130818_204
0.9619147,4.6755753,8.659625,0.014202617,9.162979E-4,0.007330383,20240202_130818_206
0.9667004,4.685745,8.616554,0.0154243475,0.0033597588,0.011148291,20240202_130818_208
0.9523434,4.7096734,8.563912,0.0154243475,0.0021380284,0.013591751,20240202_130818_210
0.9379865,4.7048874,8.545368,0.01786781,0.0021380284,0.013591751,20240202_130818_212
0.9098708,4.700102,8.516654,0.016646078,-3.0543262E-4,0.012370021,20240202_130818_214
0.89072824,4.6953163,8.5118685,0.0154243475,-3.0543262E-4,0.012217305,20240202_130818_218
0.89072824,4.666602,8.497512,0.016646078,-0.0015271631,0.012370021,20240202_130818_220
0.8955139,4.6522455,8.516654,0.016646078,9.162979E-4,0.00992656,20240202_130818_221
0.90508515,4.64746,8.516654,0.011759156,0.0021380284,0.009773844,20240202_130818_224
0.9194421,4.633103,8.550154,0.010537425,0.0021380284,0.010995574,20240202_130818_225
0.9290134,4.633103,8.569296,0.009315695,0.004581489,0.009773844,20240202_130818_227
0.933799,4.642674,8.578867,0.006872234,0.008246681,0.010995574,20240202_130818_230
0.9385847,4.657031,8.550154,0.004428773,0.004581489,0.009773844,20240202_130818_232
0.9385847,4.6522455,8.550154,0.001985312,0.00580322,0.009773844,20240202_130818_234
0.91465646,4.657031,8.540583,0.001985312,0.00580322,0.010995574,20240202_130818_236
0.9290134,4.6618166,8.52144,-0.00290161,0.004581489,0.010995574,20240202_130818_238
0.9098708,4.642674,8.531011,-0.0016798794,0.00580322,0.009773844,20240202_130818_240
0.9194421,4.64746,8.550154,-0.005192355,0.0021380284,0.009773844,20240202_130818_242
0.90508515,4.642674,8.56451,-0.006414085,0.0021380284,0.009773844,20240202_130818_245
0.90508515,4.666602,8.574081,-0.008857546,9.162979E-4,0.007330383,20240202_130818_247
0.8955139,4.6618166,8.578867,-0.011301007,-0.0015271631,0.0047342055,20240202_130818_249
0.8955139,4.6522455,8.578867,-0.011301007,-3.0543262E-4,0.005955936,20240202_130818_252
0.90029955,4.666602,8.569296,-0.014966198,-0.005192355,0.0022907446,20240202_130818_254
0.89072824,4.657031,8.574081,-0.014966198,-0.003970624,0.0022907446,20240202_130818_255
0.8859426,4.657031,8.578867,-0.01740966,-0.003970624,0.0022907446,20240202_130818_257
0.89072824,4.642674,8.602796,-0.016187929,-0.005192355,0.0022907446,20240202_130818_260
0.8811569,4.657031,8.607581,-0.013744468,-0.003970624,0.0022907446,20240202_130818_262
0.8859426,4.64746,8.59801,-0.013744468,-0.003970624,0.0035124752,20240202_130818_264
0.8811569,4.6522455,8.593225,-0.0125227375,-0.005192355,0.0047342055,20240202_130818_267
0.8668,4.642674,8.588439,-0.010079277,-0.010079277,0.0035124752,20240202_130818_269
0.8668,4.657031,8.621938,-0.005192355,-0.0027488936,0.0061086523,20240202_130818_270
0.85244304,4.64746,8.63151,-0.0027488936,-0.005192355,0.0061086523,20240202_130818_273
0.87637126,4.642674,8.612367,9.162979E-4,-0.005192355,0.004886922,20240202_130818_275
0.86201435,4.642674,8.617152,0.0021380284,-0.0027488936,0.007330383,20240202_130818_277
0.87158567,4.642674,8.617152,0.006872234,-0.0015271631,0.007330383,20240202_130818_279
0.87158567,4.633103,8.626724,0.010537425,9.162979E-4,0.0061086523,20240202_130818_281
0.8668,4.642674,8.63151,0.014202617,0.0021380284,0.0061086523,20240202_130818_283
0.8859426,4.642674,8.626724,0.014202617,0.0021380284,0.0061086523,20240202_130818_285
0.87158567,4.642674,8.626724,0.016646078,9.162979E-4,0.0062613687,20240202_130818_288
0.87158567,4.6378884,8.617152,0.019089539,-3.0543262E-4,0.0050396384,20240202_130818_290
0.8811569,4.633103,8.612367,0.02031127,0.0021380284,0.0050396384,20240202_130818_292
0.8811569,4.642674,8.607581,0.021533,-3.0543262E-4,0.0038179078,20240202_130818_294
0.86201435,4.6378884,8.583653,0.02031127,-0.0015271631,0.0025961774,20240202_130818_297
0.87637126,4.6235313,8.593225,0.02031127,-0.0015271631,0.0025961774,20240202_130818_298
0.90029955,4.633103,8.583653,0.021533,-0.0027488936,0.0013744468,20240202_130818_301
0.90508515,4.642674,8.588439,0.019089539,-0.0076358155,0.0012217305,20240202_130818_303
0.89072824,4.6378884,8.583653,0.019089539,-0.003970624,0.0013744468,20240202_130818_305
0.90508515,4.642674,8.593225,0.01786781,-0.006414085,0.0012217305,20240202_130818_307
0.91465646,4.633103,8.578867,0.016646078,-0.008857546,0.0012217305,20240202_130818_310
0.9242278,4.6522455,8.574081,0.0143553335,-0.011301007,-0.0,20240202_130818_312
0.91465646,4.657031,8.569296,0.015577064,-0.010079277,-0.0,20240202_130818_315
0.91465646,4.6378884,8.540583,0.013133603,-0.0125227375,-0.0,20240202_130818_316
0.933799,4.6522455,8.574081,0.013133603,-0.013591751,0.0012217305,20240202_130818_318
0.9385847,4.6522455,8.56451,0.013133603,-0.0125227375,-0.0,20240202_130818_321
0.94337034,4.6618166,8.549556,0.0106901415,-0.014966198,-0.0,20240202_130818_322
0.94337034,4.671388,8.563912,0.008246681,-0.0125227375,-0.0012217305,20240202_130818_324
0.9385847,4.6618166,8.549556,0.0070249503,-0.0125227375,-0.002443461,20240202_130818_327
0.9385847,4.666602,8.559127,0.008246681,-0.010079277,-0.0012217305,20240202_130818_329
0.94337034,4.6618166,8.549556,0.0033597588,-0.008857546,-0.002443461,20240202_130818_331
0.96729857,4.666602,8.554341,0.0033597588,-0.010079277,-0.0036651916,20240202_130818_332
0.95772725,4.666602,8.539984,9.162979E-4,-0.008857546,-0.0036651916,20240202_130818_336
0.9529416,4.680959,8.535198,-3.0543262E-4,-0.006414085,-0.004886922,20240202_130818_337
0.948156,4.690531,8.544769,-3.0543262E-4,-0.006414085,-0.004886922,20240202_130818_339
0.95772725,4.700102,8.530413,-0.0015271631,-0.005192355,-0.007330383,20240202_130818_341
0.9529416,4.685745,8.535198,-0.0027488936,-0.0027488936,-0.007330383,20240202_130818_343
0.9529416,4.685745,8.535198,-0.0027488936,-0.005192355,-0.008552114,20240202_130818_345
0.948156,4.700102,8.539984,-0.006414085,-0.003970624,-0.00992656,20240202_130818_348
0.948156,4.700102,8.544769,-0.006414085,-0.0027488936,-0.012370021,20240202_130818_350
0.933799,4.6953163,8.539984,-0.010079277,-0.006414085,-0.012370021,20240202_130818_352
0.9290134,4.685745,8.530413,-0.0076358155,-0.003970624,-0.012370021,20240202_130818_354
0.9194421,4.6953163,8.535198,-0.011148291,-0.003970624,-0.016035212,20240202_130818_356
0.91465646,4.680959,8.539984,-0.011301007,-0.0027488936,-0.014813482,20240202_130818_358
0.9098708,4.680959,8.563912,-0.013591751,-0.006414085,-0.017256944,20240202_130818_360
0.90508515,4.657031,8.554939,-0.016035212,-0.005192355,-0.017256944,20240202_130818_364
0.91465646,4.6522455,8.554939,-0.018478673,-0.006414085,-0.017256944,20240202_130818_365
0.91465646,4.657031,8.578269,-0.017256944,-0.0076358155,-0.017256944,20240202_130818_368
0.89072824,4.657031,8.559725,-0.019700404,-0.010079277,-0.017256944,20240202_130818_369
0.90029955,4.642674,8.574081,-0.022143865,-0.008857546,-0.018478673,20240202_130818_372
0.8955139,4.657031,8.554939,-0.020922136,-0.011301007,-0.017256944,20240202_130818_373
0.8811569,4.642674,8.540583,-0.020922136,-0.011301007,-0.018478673,20240202_130818_376
0.8811569,4.633103,8.56451,-0.020922136,-0.0125227375,-0.017256944,20240202_130818_378
0.8811569,4.6378884,8.569296,-0.019700404,-0.014966198,-0.017256944,20240202_130818_380
0.87637126,4.6283174,8.574081,-0.020922136,-0.016187929,-0.017256944,20240202_130818_382
0.87158567,4.6235313,8.59801,-0.019700404,-0.014966198,-0.016035212,20240202_130818_384
0.86201435,4.6235313,8.607581,-0.018478673,-0.013744468,-0.016035212,20240202_130818_386
0.8572287,4.6235313,8.636295,-0.017256944,-0.01740966,-0.012370021,20240202_130818_388
0.84765744,4.6283174,8.636295,-0.017256944,-0.014966198,-0.013591751,20240202_130818_391
0.8572287,4.6283174,8.63151,-0.014813482,-0.008857546,-0.011148291,20240202_130818_393
0.87158567,4.618746,8.612367,-0.0125227375,-0.013744468,-0.007483099,20240202_130818_396
0.8668,4.618746,8.621938,-0.010079277,-0.010079277,-0.007483099,20240202_130818_397
0.8811569,4.6283174,8.621938,-0.0076358155,-0.006414085,-0.0025961774,20240202_130818_399
0.87637126,4.6378884,8.641081,-0.003970624,-0.005192355,-0.0012217305,20240202_130818_402
0.87637126,4.642674,8.650652,-0.0027488936,-0.006414085,0.0012217305,20240202_130818_404
0.8668,4.64746,8.645866,-3.0543262E-4,-0.0027488936,0.0012217305,20240202_130818_406
0.8668,4.671388,8.645268,0.004581489,9.162979E-4,0.0036651916,20240202_130818_408
0.8668,4.6618166,8.621938,0.006872234,9.162979E-4,0.0036651916,20240202_130818_411
0.8668,4.64746,8.636295,0.010537425,0.0033597588,0.004886922,20240202_130818_412
0.87637126,4.6522455,8.588439,0.011759156,0.004581489,0.0061086523,20240202_130818_415
0.87637126,4.6618166,8.607581,0.014202617,0.004581489,0.004886922,20240202_130818_416
0.8811569,4.657031,8.578867,0.0154243475,0.0033597588,0.0050396384,20240202_130818_418
0.87158567,4.666602,8.583653,0.01786781,0.004581489,0.0038179078,20240202_130818_421
0.89072824,4.6761737,8.597412,0.01786781,0.004581489,0.0038179078,20240202_130818_423
0.8955139,4.671388,8.574081,0.016646078,0.0033597588,0.0025961774,20240202_130818_426
0.90029955,4.6761737,8.58784,0.014202617,0.0033597588,0.002443461,20240202_130818_427
0.8955139,4.671388,8.578867,0.014202617,0.0033597588,0.0012217305,20240202_130818_429
0.8859426,4.671388,8.583653,0.014202617,0.0033597588,-0.0,20240202_130818_431
0.8859426,4.6618166,8.578867,0.0106901415,9.162979E-4,-0.0,20240202_130818_433
0.8859426,4.680959,8.540583,0.008246681,-0.0027488936,-0.0,20240202_130818_435
0.8811569,4.666602,8.540583,0.0070249503,-3.0543262E-4,-0.002443461,20240202_130818_437
0.89072824,4.6522455,8.554939,0.0033597588,-0.003970624,-0.0,20240202_130818_441
0.8955139,4.666602,8.569296,9.162979E-4,-0.0076358155,-0.0012217305,20240202_130818_442
0.9098708,4.6522455,8.545368,-3.0543262E-4,-0.006414085,-0.0,20240202_130818_444
0.90508515,4.657031,8.554939,-0.0015271631,-0.006414085,-0.0012217305,20240202_130818_446
0.8955139,4.6618166,8.550154,-0.005192355,-0.006414085,-0.0012217305,20240202_130818_448
0.89072824,4.666602,8.554939,-0.005192355,-0.003970624,-0.0,20240202_130818_450
0.8811569,4.64746,8.554939,-0.006414085,-0.003970624,-0.0,20240202_130818_452
0.8859426,4.666602,8.545368,-0.0076358155,-0.003970624,0.0010690142,20240202_130818_455
0.8955139,4.6618166,8.545368,-0.010079277,-0.005192355,-1.5271631E-4,20240202_130818_458
0.90029955,4.6618166,8.540583,-0.010079277,-3.0543262E-4,0.0022907446,20240202_130818_460
0.90508515,4.671388,8.550154,-0.0076358155,9.162979E-4,0.002443461,20240202_130818_461
0.90508515,4.666602,8.56451,-0.008857546,-3.0543262E-4,0.0010690142,20240202_130818_464
0.9098708,4.690531,8.574081,-0.011301007,9.162979E-4,0.0022907446,20240202_130818_466
0.90508515,4.685745,8.569296,-0.011301007,0.0033597588,0.0022907446,20240202_130818_468
0.9098708,4.690531,8.56451,-0.0125227375,-3.0543262E-4,0.0010690142,20240202_130818_470
0.8955139,4.700102,8.56451,-0.016187929,0.0021380284,-1.5271631E-4,20240202_130818_473
0.9098708,4.685745,8.569296,-0.01740966,9.162979E-4,0.0010690142,20240202_130818_474
0.90029955,4.666602,8.569296,-0.016187929,-0.003970624,-1.5271631E-4,20240202_130818_477
0.9194421,4.666602,8.554939,-0.01740966,9.162979E-4,-1.5271631E-4,20240202_130818_478
0.9194421,4.657031,8.56451,-0.01863139,-0.0027488936,-1.5271631E-4,20240202_130818_481
0.9194421,4.6522455,8.569296,-0.01985312,-0.005192355,-0.0025961774,20240202_130818_483
0.9194421,4.657031,8.56451,-0.01985312,-0.0015271631,-0.0025961774,20240202_130818_485
0.9290134,4.6522455,8.588439,-0.01985312,-0.005192355,-0.0038179078,20240202_130818_488
0.9194421,4.666602,8.597412,-0.01863139,-0.0076358155,-0.0025961774,20240202_130818_489
0.9385847,4.64746,8.583653,-0.02107485,-0.006414085,-0.0038179078,20240202_130818_491
0.9194421,4.64746,8.578867,-0.01985312,-0.0076358155,-0.0038179078,20240202_130818_493
0.9242278,4.633103,8.583653,-0.016187929,-0.006414085,-0.0025961774,20240202_130818_496
0.94337034,4.6283174,8.602796,-0.016187929,-0.003970624,-1.5271631E-4,20240202_130818_499
0.9385847,4.6378884,8.583653,-0.014966198,-0.0027488936,-1.5271631E-4,20240202_130818_501
0.933799,4.6378884,8.602796,-0.0125227375,-0.0015271631,0.0010690142,20240202_130818_502
0.9290134,4.633103,8.607581,-0.011301007,9.162979E-4,0.0035124752,20240202_130818_504
0.9242278,4.64746,8.62134,-0.008857546,0.004581489,0.0012217305,20240202_130818_506
0.9194421,4.642674,8.59801,-0.006414085,0.0021380284,0.0036651916,20240202_130818_508
0.9242278,4.642674,8.602796,-0.005192355,0.004581489,0.002443461,20240202_130818_511
0.90508515,4.657031,8.602796,-0.003970624,0.008246681,0.002443461,20240202_130818_513
0.91465646,4.6522455,8.578867,-3.0543262E-4,0.0033597588,0.002443461,20240202_130818_515
0.9098708,4.642674,8.593225,9.162979E-4,0.00580322,0.0036651916,20240202_130818_517
0.9194421,4.633103,8.593225,0.0033597588,0.0070249503,0.002443461,20240202_130818_519
0.9194421,4.633103,8.593225,0.0032070426,0.00580322,0.0036651916,20240202_130818_521
0.9242278,4.642674,8.602796,0.004428773,0.009468411,0.0012217305,20240202_130818_523
0.9242278,4.657031,8.606983,0.0056505036,0.010537425,0.002443461,20240202_130818_526
0.9194421,4.671388,8.611769,0.006872234,0.0070249503,0.0012217305,20240202_130818_529
0.91465646,4.671388,8.630911,0.0056505036,0.008246681,0.0012217305,20240202_130818_531
0.90508515,4.6618166,8.640483,0.009315695,0.009468411,-0.0012217305,20240202_130818_534
0.90029955,4.642674,8.607581,0.009468411,0.008246681,-0.002443461,20240202_130818_535
0.8859426,4.6283174,8.602796,0.009468411,0.009468411,-0.0036651916,20240202_130818_537
0.89072824,4.6235313,8.574081,0.011911872,0.010537425,-0.004886922,20240202_130818_540
0.89072824,4.6235313,8.574081,0.011911872,0.00580322,-0.004886922,20240202_130818_540
0.8859426,4.604389,8.583653,0.011911872,0.0021380284,-0.0036651916,20240202_130818_543
0.90029955,4.618746,8.588439,0.0106901415,0.004581489,-0.0036651916,20240202_130818_545
0.8859426,4.6139603,8.578867,0.009468411,-3.0543262E-4,-0.004886922,20240202_130818_547
0.8955139,4.618746,8.588439,0.009468411,-0.005192355,-0.004886922,20240202_130818_549
0.8859426,4.6378884,8.593225,0.008246681,-3.0543262E-4,-0.0061086523,20240202_130818_551
0.8859426,4.642674,8.607581,0.008246681,-0.003970624,-0.0061086523,20240202_130818_553
0.89072824,4.6378884,8.602796,0.008246681,-0.0076358155,-0.007330383,20240202_130818_556
0.87637126,4.642674,8.583653,0.00580322,-0.0027488936,-0.0061086523,20240202_130818_558
0.87158567,4.6522455,8.593225,0.0070249503,-0.008857546,-0.007330383,20240202_130818_560
0.8811569,4.64746,8.583653,0.0033597588,-0.0076358155,-0.007330383,20240202_130818_562
0.89072824,4.642674,8.593225,0.004581489,-0.0027488936,-0.008552114,20240202_130818_564
0.8859426,4.6378884,8.583653,0.0033597588,-0.0076358155,-0.007330383,20240202_130818_567
0.8859426,4.6522455,8.569296,0.0021380284,-0.008857546,-0.007330383,20240202_130818_569
0.8859426,4.642674,8.574081,0.0021380284,-0.003970624,-0.007330383,20240202_130818_571
0.8811569,4.6378884,8.56451,0.0033597588,-0.0076358155,-0.007330383,20240202_130818_573
0.8811569,4.657031,8.56451,0.0021380284,-0.0076358155,-0.007330383,20240202_130818_575
0.8811569,4.6522455,8.578867,0.004581489,-0.005192355,-0.0061086523,20240202_130818_577
0.8859426,4.64746,8.578867,0.0021380284,-0.008857546,-0.0061086523,20240202_130818_579
0.8811569,4.666602,8.569296,0.0033597588,-0.006414085,-0.0061086523,20240202_130818_581
0.8859426,4.666602,8.588439,0.004581489,-0.003970624,-0.0036651916,20240202_130818_584
0.90029955,4.680959,8.597412,0.0021380284,-0.003970624,-0.0036651916,20240202_130818_585
0.8859426,4.690531,8.592627,0.0021380284,-0.003970624,-0.002443461,20240202_130818_588
0.8811569,4.680959,8.583653,0.0021380284,-3.0543262E-4,-0.0036651916,20240202_130818_590
0.89072824,4.671388,8.602796,0.0021380284,-3.0543262E-4,-0.0012217305,20240202_130818_592
0.87158567,4.666602,8.574081,0.0021380284,9.162979E-4,-0.0012217305,20240202_130818_595
0.87637126,4.6522455,8.56451,0.0021380284,0.004581489,0.0012217305,20240202_130818_596
0.87637126,4.64746,8.550154,0.0033597588,9.162979E-4,0.002443461,20240202_130818_599
0.89072824,4.6378884,8.540583,0.0033597588,0.0021380284,0.002443461,20240202_130818_601
0.87637126,4.642674,8.540583,0.0021380284,0.0021380284,0.0061086523,20240202_130818_603
0.8859426,4.642674,8.550154,0.0021380284,-0.0015271631,0.007330383,20240202_130818_605
0.8811569,4.64746,8.569296,9.162979E-4,9.162979E-4,0.007330383,20240202_130818_608
0.8811569,4.657031,8.56451,-0.0015271631,-3.0543262E-4,0.009773844,20240202_130818_609
0.87637126,4.6618166,8.569296,-0.00290161,-3.0543262E-4,0.012217305,20240202_130818_612
0.87158567,4.6618166,8.56451,-0.006414085,9.162979E-4,0.010995574,20240202_130818_614
0.8811569,4.6761737,8.569296,-0.0076358155,9.162979E-4,0.012217305,20240202_130818_617
0.8811569,4.680959,8.569296,-0.0076358155,9.162979E-4,0.012217305,20240202_130818_619
0.89072824,4.6761737,8.550154,-0.008857546,-3.0543262E-4,0.012217305,20240202_130818_620
0.8955139,4.6618166,8.540583,-0.011301007,9.162979E-4,0.013286319,20240202_130818_623
0.8859426,4.680959,8.559725,-0.011301007,-0.0027488936,0.012064588,20240202_130818_625
0.87637126,4.690531,8.574081,-0.013744468,-0.0027488936,0.012064588,20240202_130818_627
0.8859426,4.680959,8.588439,-0.014966198,-3.0543262E-4,0.0096211275,20240202_130818_629
0.8955139,4.680959,8.569296,-0.014966198,-0.0015271631,0.008399397,20240202_130818_631
0.8955139,4.6761737,8.554939,-0.013744468,-0.0027488936,0.0096211275,20240202_130818_633
0.90508515,4.6522455,8.588439,-0.016187929,9.162979E-4,0.008399397,20240202_130818_636
0.89072824,4.64746,8.583653,-0.013744468,-0.0027488936,0.008399397,20240202_130818_638
0.90029955,4.657031,8.578867,-0.013744468,-0.0027488936,0.0071776668,20240202_130818_641
0.8955139,4.6522455,8.593225,-0.013744468,9.162979E-4,0.0071776668,20240202_130818_642
0.8955139,4.6522455,8.593225,-0.014966198,-0.003970624,0.005955936,20240202_130818_645
0.90029955,4.657031,8.59801,-0.013744468,-0.0027488936,0.0047342055,20240202_130818_647
0.90508515,4.657031,8.583653,-0.013744468,-0.005192355,0.005955936,20240202_130818_649
0.90029955,4.6618166,8.607581,-0.013744468,-0.006414085,0.005955936,20240202_130818_650
0.90029955,4.64746,8.59801,-0.0125227375,-0.0076358155,0.0047342055,20240202_130818_652
0.89072824,4.642674,8.602796,-0.010079277,-0.005192355,0.0035124752,20240202_130818_654
0.9098708,4.642674,8.602796,-0.011301007,-0.008857546,0.0047342055,20240202_130818_657
0.9098708,4.6378884,8.612367,-0.010079277,-0.0076358155,0.0022907446,20240202_130818_659
0.933799,4.64746,8.612367,-0.010079277,-0.0076358155,0.0010690142,20240202_130818_661
0.9194421,4.6522455,8.621938,-0.010079277,-0.010079277,0.0035124752,20240202_130818_664
0.9290134,4.64746,8.602796,-0.010079277,-0.011301007,0.0010690142,20240202_130818_666
0.9290134,4.642674,8.602796,-0.008857546,-0.010079277,0.0010690142,20240202_130818_669
0.933799,4.633103,8.602796,-0.008857546,-0.008857546,-0.0013744468,20240202_130818_669
0.9242278,4.633103,8.621938,-0.0076358155,-0.0125227375,-0.0013744468,20240202_130818_673
0.9242278,4.6283174,8.621938,-0.006414085,-0.011301007,-0.0025961774,20240202_130818_674
0.9194421,4.6139603,8.59801,-0.0076358155,-0.010079277,-0.0025961774,20240202_130818_676
0.9242278,4.6235313,8.59801,-0.005192355,-0.016187929,-0.0050396384,20240202_130818_678
0.94337034,4.6283174,8.602796,-0.006414085,-0.016187929,-0.0038179078,20240202_130818_681
0.9290134,4.6283174,8.59801,-0.0076358155,-0.014966198,-0.0050396384,20240202_130818_683
0.94337034,4.6235313,8.593225,-0.005192355,-0.01740966,-0.0062613687,20240202_130818_685
0.9290134,4.6283174,8.59801,-0.0076358155,-0.016187929,-0.0062613687,20240202_130818_687
0.933799,4.6283174,8.59801,-0.006414085,-0.016187929,-0.007483099,20240202_130818_689
0.933799,4.6283174,8.593225,-0.0076358155,-0.01740966,-0.0062613687,20240202_130818_691
0.91465646,4.6235313,8.593225,-0.008857546,-0.014966198,-0.007483099,20240202_130818_694
0.9194421,4.6235313,8.588439,-0.010079277,-0.013744468,-0.0062613687,20240202_130818_696
0.9098708,4.618746,8.583653,-0.010079277,-0.014966198,-0.0050396384,20240202_130818_698
0.90508515,4.6139603,8.578867,-0.011301007,-0.013744468,-0.0038179078,20240202_130818_700
0.91465646,4.6235313,8.56451,-0.0125227375,-0.014966198,-0.0025961774,20240202_130818_702
0.9194421,4.6235313,8.56451,-0.0125227375,-0.013744468,-0.0025961774,20240202_130818_704
0.9290134,4.64746,8.569296,-0.010079277,-0.011301007,-1.5271631E-4,20240202_130818_706
0.9242278,4.657031,8.574081,-0.014966198,-0.011301007,-0.0025961774,20240202_130818_709
0.9194421,4.6761737,8.58784,-0.014966198,-0.010079277,0.0010690142,20240202_130818_710
0.8955139,4.671388,8.569296,-0.013744468,-0.0076358155,0.0022907446,20240202_130818_713
0.9098708,4.685745,8.578867,-0.014966198,-0.008857546,0.0022907446,20240202_130818_715
0.8859426,4.685745,8.545368,-0.01740966,-0.008857546,0.0022907446,20240202_130818_719
0.89072824,4.680959,8.550154,-0.01740966,-0.0076358155,0.0022907446,20240202_130818_720
0.8811569,4.680959,8.545368,-0.01740966,-0.008857546,0.0047342055,20240202_130818_721
0.87637126,4.6953163,8.540583,-0.01985312,-0.011301007,0.0035124752,20240202_130818_723
0.87637126,4.680959,8.531011,-0.02107485,-0.0125227375,0.0035124752,20240202_130818_726
0.87637126,4.690531,8.526225,-0.022296581,-0.011301007,0.0035124752,20240202_130818_728
0.87158567,4.685745,8.540583,-0.025961773,-0.01863139,0.0047342055,20240202_130818_730
0.87637126,4.6953163,8.531011,-0.027183503,-0.016187929,0.0035124752,20240202_130818_732
0.8572287,4.6953163,8.526225,-0.028252518,-0.01740966,0.004581489,20240202_130818_735
0.86201435,4.690531,8.535796,-0.030695979,-0.024587326,0.00580322,20240202_130818_736
0.8572287,4.671388,8.545368,-0.03191771,-0.01985312,0.0070249503,20240202_130818_738
0.8572287,4.6618166,8.540583,-0.03436117,-0.01740966,0.008246681,20240202_130818_741
0.87158567,4.657031,8.550154,-0.03680463,-0.024587326,0.0106901415,20240202_130818_743
0.8811569,4.642674,8.56451,-0.038026363,-0.02107485,0.0106901415,20240202_130818_746
0.87158567,4.657031,8.569296,-0.03924809,-0.01740966,0.011911872,20240202_130818_749
0.87158567,4.6618166,8.578867,-0.04046982,-0.02107485,0.013133603,20240202_130818_750
0.89072824,4.6618166,8.578867,-0.04046982,-0.02107485,0.0143553335,20240202_130818_755
0.8955139,4.64746,8.588439,-0.04062254,-0.016187929,0.015577064,20240202_130818_756
0.8955139,4.6522455,8.583653,-0.03940081,-0.01863139,0.016798794,20240202_130818_756
0.8955139,4.6522455,8.583653,-0.04062254,-0.01985312,0.015577064,20240202_130818_758
0.89072824,4.633103,8.583653,-0.03940081,-0.01740966,0.016798794,20240202_130818_761
0.8811569,4.6235313,8.56451,-0.04062254,-0.016187929,0.015577064,20240202_130818_763
0.8955139,4.6091747,8.583653,-0.03940081,-0.01740966,0.016798794,20240202_130818_764
0.91465646,4.599603,8.593225,-0.038179077,-0.016187929,0.0143553335,20240202_130818_766
0.91465646,4.599603,8.626724,-0.03940081,-0.013744468,0.015577064,20240202_130818_769
0.91465646,4.6283174,8.63151,-0.03940081,-0.0125227375,0.0143553335,20240202_130818_770
0.933799,4.6091747,8.641081,-0.03940081,-0.008857546,0.013133603,20240202_130818_773
0.933799,4.6235313,8.612367,-0.038179077,-0.010079277,0.011911872,20240202_130818_776
0.9385847,4.633103,8.641081,-0.036957346,-0.008857546,0.011911872,20240202_130818_777
0.9385847,4.6139603,8.617152,-0.03573562,-0.0076358155,0.011911872,20240202_130818_780
0.9385847,4.604389,8.621938,-0.033292156,-0.0076358155,0.009468411,20240202_130818_782
0.94337034,4.5804605,8.63151,-0.03573562,-0.011301007,0.008246681,20240202_130818_785
0.94337034,4.5948176,8.621938,-0.030848695,-0.0076358155,0.0071776668,20240202_130818_786
0.9625129,4.5804605,8.626724,-0.029626964,-0.010079277,0.0071776668,20240202_130818_788
0.9385847,4.5852466,8.641081,-0.029626964,-0.010079277,0.0071776668,20240202_130818_790
0.9385847,4.599603,8.650652,-0.028405234,-0.008857546,0.005955936,20240202_130818_792
0.94337034,4.6091747,8.636295,-0.027183503,-0.011301007,0.005955936,20240202_130818_794
0.9290134,4.5948176,8.63151,-0.027183503,-0.011301007,0.005955936,20240202_130818_796
0.94337034,4.5852466,8.621938,-0.024740042,-0.0125227375,0.005955936,20240202_130818_798
0.948156,4.590032,8.63151,-0.022296581,-0.008857546,0.0071776668,20240202_130818_801
0.9385847,4.5804605,8.63151,-0.01863139,-0.010079277,0.005955936,20240202_130818_802
0.9625129,4.5804605,8.626724,-0.01863139,-0.011301007,0.0071776668,20240202_130818_805
0.96729857,4.599603,8.63151,-0.01740966,-0.011301007,0.008399397,20240202_130818_807
0.96729857,4.599603,8.626724,-0.013744468,-0.006414085,0.0071776668,20240202_130818_809
0.971486,4.6091747,8.635697,-0.013744468,-0.0076358155,0.008399397,20240202_130818_811
0.9619147,4.6139603,8.636295,-0.010079277,-0.006414085,0.0071776668,20240202_130818_813
0.9529416,4.6235313,8.626724,-0.011301007,-0.0076358155,0.005955936,20240202_130818_816
0.94337034,4.604389,8.593225,-0.008857546,-0.008857546,0.0035124752,20240202_130818_818
0.95772725,4.604389,8.588439,-0.0076358155,-0.008857546,0.0022907446,20240202_130818_821
0.9625129,4.5948176,8.574081,-0.008857546,-0.010079277,0.0010690142,20240202_130818_822
0.96729857,4.590032,8.578867,-0.006414085,-0.010079277,-1.5271631E-4,20240202_130818_825
0.9625129,4.599603,8.578867,-0.006414085,-0.010079277,-1.5271631E-4,20240202_130818_826
0.9625129,4.590032,8.583653,-0.010079277,-0.010079277,-0.0025961774,20240202_130818_829
0.9768698,4.590032,8.588439,-0.008857546,-0.0076358155,-0.0038179078,20240202_130818_830
0.96729857,4.590032,8.593225,-0.010079277,-0.010079277,-0.0050396384,20240202_130818_833
0.9720842,4.599603,8.607581,-0.011301007,-0.011301007,-0.0050396384,20240202_130818_835
0.9625129,4.599603,8.593225,-0.0125227375,-0.010079277,-0.0062613687,20240202_130818_837
0.95772725,4.604389,8.59801,-0.0125227375,-0.011301007,-0.0062613687,20240202_130818_840
0.9529416,4.599603,8.593225,-0.0125227375,-0.010079277,-0.0062613687,20240202_130818_842
0.94337034,4.5948176,8.593225,-0.0125227375,-0.008857546,-0.0062613687,20240202_130818_844
0.9529416,4.6091747,8.588439,-0.0125227375,-0.008857546,-0.0050396384,20240202_130818_845
0.9529416,4.5948176,8.569296,-0.0125227375,-0.008857546,-0.0038179078,20240202_130818_848
0.94337034,4.604389,8.583653,-0.011301007,-0.008857546,-1.5271631E-4,20240202_130818_850
0.9385847,4.618746,8.59801,-0.0125227375,-0.006414085,-0.0013744468,20240202_130818_852
0.9242278,4.618746,8.602796,-0.0125227375,-0.006414085,-1.5271631E-4,20240202_130818_854
0.9242278,4.633103,8.588439,-0.011301007,-0.006414085,-0.0013744468,20240202_130818_857
0.9194421,4.6522455,8.593225,-0.010079277,-0.003970624,0.0010690142,20240202_130818_858
0.9242278,4.6378884,8.583653,-0.011301007,-0.005192355,0.0010690142,20240202_130818_861
0.9098708,4.633103,8.574081,-0.011301007,-0.006414085,0.0010690142,20240202_130818_863
0.91465646,4.6283174,8.583653,-0.0125227375,-0.005192355,-1.5271631E-4,20240202_130818_866
0.9098708,4.6378884,8.583653,-0.011301007,-0.0027488936,0.0022907446,20240202_130818_868
0.9242278,4.642674,8.588439,-0.011301007,-0.005192355,0.0010690142,20240202_130818_870
0.91465646,4.642674,8.617152,-0.013744468,-0.0027488936,-1.5271631E-4,20240202_130818_872
0.9098708,4.6522455,8.636295,-0.0125227375,-3.0543262E-4,-1.5271631E-4,20240202_130818_874
0.91405827,4.657031,8.621938,-0.0125227375,-0.0015271631,-1.5271631E-4,20240202_130818_876
0.9098708,4.6378884,8.59801,-0.014966198,9.162979E-4,0.0010690142,20240202_130818_879
0.9194421,4.6283174,8.621938,-0.01740966,-3.0543262E-4,0.0035124752,20240202_130818_880
0.91465646,4.604389,8.59801,-0.014966198,-0.003970624,0.0035124752,20240202_130818_882
0.8955139,4.599603,8.583653,-0.01740966,-0.0015271631,0.0047342055,20240202_130818_885
0.8859426,4.6139603,8.578867,-0.01740966,-3.0543262E-4,0.005955936,20240202_130818_886
0.87637126,4.604389,8.593225,-0.01740966,-0.0015271631,0.005955936,20240202_130818_889
0.89072824,4.6139603,8.59801,-0.016187929,0.0033597588,0.0047342055,20240202_130818_891
0.8811569,4.5948176,8.63151,-0.014966198,0.0021380284,0.005955936,20240202_130818_893
0.89072824,4.599603,8.621938,-0.01740966,0.0021380284,0.005955936,20240202_130818_895
0.90029955,4.604389,8.621938,-0.014966198,0.008246681,0.005955936,20240202_130818_897
0.91465646,4.5852466,8.626724,-0.013744468,0.0070249503,0.0047342055,20240202_130818_900
0.9098708,4.599603,8.621938,-0.0125227375,0.008246681,0.0047342055,20240202_130818_901
0.91465646,4.5948176,8.626724,-0.010079277,0.0106901415,0.002443461,20240202_130818_904
0.91465646,4.590032,8.626724,-0.010079277,0.0106901415,0.0036651916,20240202_130818_906
0.90508515,4.5852466,8.612367,-0.008857546,0.0106901415,0.0036651916,20240202_130818_908
0.9098708,4.5948176,8.621938,-0.008857546,0.0106901415,0.002443461,20240202_130818_910
0.9290134,4.599603,8.63151,-0.005192355,0.013133603,0.002443461,20240202_130818_912
0.9290134,4.5948176,8.650652,-0.005192355,0.013133603,0.0012217305,20240202_130818_914
0.9290134,4.5804605,8.641081,-0.003970624,0.0106901415,0.0012217305,20240202_130818_918
0.91465646,4.566104,8.650652,-0.0015271631,0.011911872,-0.0,20240202_130818_919
0.9242278,4.5708895,8.655437,9.162979E-4,0.011911872,0.0012217305,20240202_130818_921
0.9194421,4.575675,8.626724,0.0021380284,0.0106901415,0.0012217305,20240202_130818_923
0.9290134,4.5613184,8.617152,0.0033597588,0.011911872,0.0012217305,20240202_130818_925
0.9290134,4.5613184,8.626724,0.004581489,0.0070249503,0.002443461,20240202_130818_927
0.9290134,4.5613184,8.63151,0.008246681,0.004581489,0.002443461,20240202_130818_929
0.933799,4.5708895,8.626724,0.0070249503,0.004581489,0.002443461,20240202_130818_932
0.933799,4.5804605,8.63151,0.009468411,0.0033597588,0.0012217305,20240202_130818_933
0.933799,4.5948176,8.645866,0.009468411,9.162979E-4,0.0012217305,20240202_130818_936
0.9290134,4.6091747,8.645866,0.009468411,0.0033597588,0.0012217305,20240202_130818_938
0.9194421,4.599603,8.636295,0.008246681,9.162979E-4,0.0012217305,20240202_130818_940
0.9290134,4.5852466,8.612367,0.009468411,9.162979E-4,0.0012217305,20240202_130818_942
0.933799,4.590032,8.612367,0.0106901415,0.0033597588,0.0012217305,20240202_130818_945
0.933799,4.5804605,8.59801,0.0106901415,-0.0027488936,-0.0,20240202_130818_947
0.94337034,4.575675,8.602796,0.0106901415,-0.0027488936,0.0012217305,20240202_130818_949
0.94337034,4.590032,8.593225,0.0106901415,-3.0543262E-4,0.0012217305,20240202_130818_951
0.95772725,4.604389,8.588439,0.0106901415,-0.0027488936,0.002443461,20240202_130818_953
0.94337034,4.618746,8.588439,0.0106901415,-0.003970624,0.002443461,20240202_130818_955
0.94755775,4.6283174,8.59801,0.0106901415,-0.0015271631,0.0012217305,20240202_130818_957
0.9523434,4.6283174,8.593225,0.008246681,9.162979E-4,0.0012217305,20240202_130818_960
0.9379865,4.642674,8.583653,0.0070249503,-3.0543262E-4,-0.0,20240202_130818_961
0.94755775,4.633103,8.583653,0.0070249503,-0.0027488936,0.0012217305,20240202_130818_964
0.9194421,4.6378884,8.559725,0.004581489,9.162979E-4,-0.0,20240202_130818_966
0.9242278,4.642674,8.578867,9.162979E-4,-3.0543262E-4,-0.0,20240202_130818_968
0.9194421,4.6091747,8.56451,-3.0543262E-4,-0.005192355,-0.0012217305,20240202_130818_970
0.9194421,4.604389,8.559725,-0.0027488936,-0.0015271631,-0.0,20240202_130818_973
0.9242278,4.6091747,8.574081,-0.005192355,-0.0015271631,-0.0,20240202_130818_975
0.9242278,4.6235313,8.569296,-0.0076358155,-0.005192355,0.0010690142,20240202_130818_977
0.9290134,4.6283174,8.559725,-0.010079277,-0.0027488936,0.0010690142,20240202_130818_979
0.9290134,4.6378884,8.554939,-0.0125227375,-0.0015271631,0.0022907446,20240202_130818_981
0.9194421,4.633103,8.540583,-0.016187929,-0.005192355,0.0010690142,20240202_130818_984
0.9194421,4.6378884,8.550154,-0.016187929,-0.005192355,0.0010690142,20240202_130818_985
0.91465646,4.6378884,8.550154,-0.01863139,-0.0015271631,0.0010690142,20240202_130818_988
0.91465646,4.6235313,8.540583,-0.02107485,-0.003970624,0.0022907446,20240202_130818_990
0.9098708,4.6283174,8.583653,-0.022296581,-0.0027488936,0.0022907446,20240202_130818_992
0.90508515,4.6235313,8.56451,-0.023518313,0.0021380284,0.0035124752,20240202_130818_994
0.90508515,4.6091747,8.578867,-0.023518313,-0.0015271631,0.0047342055,20240202_130818_997
0.8955139,4.6235313,8.574081,-0.024740042,9.162979E-4,0.005955936,20240202_130818_998
0.8955139,4.6378884,8.578867,-0.022296581,0.0033597588,0.005955936,20240202_130819_001
0.8955139,4.6378884,8.593225,-0.023518313,-3.0543262E-4,0.005955936,20240202_130819_002
0.90029955,4.633103,8.593225,-0.025961773,-0.0027488936,0.0071776668,20240202_130819_004
0.8955139,4.633103,8.59801,-0.024740042,9.162979E-4,0.0071776668,20240202_130819_007
0.8859426,4.6283174,8.59801,-0.023518313,-0.003970624,0.008399397,20240202_130819_009
0.90029955,4.6235313,8.588439,-0.022296581,-0.005192355,0.0096211275,20240202_130819_011
0.90508515,4.6091747,8.593225,-0.022296581,-0.003970624,0.008399397,20240202_130819_013
0.90508515,4.618746,8.612367,-0.022296581,-0.0076358155,0.0096211275,20240202_130819_015
0.9194421,4.6283174,8.621938,-0.023518313,-0.011301007,0.0096211275,20240202_130819_018
0.90508515,4.618746,8.59801,-0.022296581,-0.008857546,0.0096211275,20240202_130819_020
0.90508515,4.642674,8.621938,-0.022296581,-0.010079277,0.0071776668,20240202_130819_022
0.90029955,4.6378884,8.607581,-0.024740042,-0.01740966,0.0071776668,20240202_130819_026
0.8955139,4.642674,8.617152,-0.024740042,-0.016187929,0.0047342055,20240202_130819_027
0.91465646,4.6283174,8.612367,-0.023518313,-0.016187929,0.0022907446,20240202_130819_028
0.91465646,4.633103,8.593225,-0.025809057,-0.025809057,0.0021380284,20240202_130819_030
0.9098708,4.604389,8.578867,-0.028252518,-0.025809057,9.162979E-4,20240202_130819_034
0.90029955,4.599603,8.612367,-0.027030786,-0.025809057,-3.0543262E-4,20240202_130819_035
0.90508515,4.5852466,8.621938,-0.028252518,-0.030695979,-3.0543262E-4,20240202_130819_038
0.9194421,4.575675,8.617152,-0.03313944,-0.028252518,-0.0015271631,20240202_130819_039
0.9290134,4.5804605,8.626724,-0.03436117,-0.029474247,-3.0543262E-4,20240202_130819_041
0.9385847,4.5852466,8.612367,-0.03313944,-0.027030786,-0.0027488936,20240202_130819_043
0.9290134,4.575675,8.607581,-0.03436117,-0.029474247,-3.0543262E-4,20240202_130819_045
0.9290134,4.5804605,8.621938,-0.03313944,-0.024587326,-0.0015271631,20240202_130819_048
0.94337034,4.5852466,8.63151,-0.03191771,-0.024587326,-0.0015271631,20240202_130819_050
0.9290134,4.5708895,8.63151,-0.03191771,-0.023365596,9.162979E-4,20240202_130819_052
0.948156,4.5613184,8.63151,-0.029474247,-0.01740966,-3.0543262E-4,20240202_130819_054
0.948156,4.5613184,8.636295,-0.028252518,-0.014966198,0.0021380284,20240202_130819_056
0.96729857,4.566104,8.612367,-0.027030786,-0.01863139,9.162979E-4,20240202_130819_058
0.95772725,4.566104,8.617152,-0.024740042,-0.008857546,0.0010690142,20240202_130819_061
0.96729857,4.575675,8.602796,-0.023518313,-0.0125227375,0.0022907446,20240202_130819_063
0.9816555,4.5708895,8.612367,-0.01985312,-0.0125227375,0.0010690142,20240202_130819_065
0.948156,4.5852466,8.617152,-0.01985312,-0.006414085,0.0022907446,20240202_130819_067
0.96729857,4.566104,8.59801,-0.01985312,-0.006414085,0.0035124752,20240202_130819_069
0.9625129,4.5613184,8.612367,-0.01740966,-0.010079277,0.0022907446,20240202_130819_071
0.9529416,4.5613184,8.626724,-0.01740966,-0.0027488936,0.0010690142,20240202_130819_073
0.95772725,4.575675,8.641081,-0.016187929,-0.003970624,0.0010690142,20240202_130819_076
0.9625129,4.5708895,8.645866,-0.016187929,-0.003970624,0.0022907446,20240202_130819_077
0.95772725,4.566104,8.669795,-0.0125227375,0.0033597588,0.0035124752,20240202_130819_080
0.9720842,4.5708895,8.660223,-0.013744468,9.162979E-4,0.0035124752,20240202_130819_082
0.9529416,4.5708895,8.655437,-0.011301007,-3.0543262E-4,0.0047342055,20240202_130819_084
0.95772725,4.551747,8.63151,-0.0125227375,0.0033597588,0.0047342055,20240202_130819_086
0.95772725,4.5613184,8.621938,-0.0076358155,0.0021380284,0.0061086523,20240202_130819_089
0.948156,4.5565324,8.617152,-0.006414085,9.162979E-4,0.0061086523,20240202_130819_090
0.95772725,4.575675,8.63151,-0.003970624,0.0033597588,0.004886922,20240202_130819_093
0.96729857,4.566104,8.63151,-0.0015271631,0.0021380284,0.0061086523,20240202_130819_096
0.9625129,4.590032,8.636295,-3.0543262E-4,9.162979E-4,0.0061086523,20240202_130819_097
0.9529416,4.599603,8.655437,0.0033597588,0.004581489,0.0036651916,20240202_130819_099
0.94755775,4.6139603,8.655437,0.0021380284,0.0033597588,0.0036651916,20240202_130819_101
0.933799,4.5852466,8.621938,0.0033597588,0.0033597588,0.0012217305,20240202_130819_104
0.94337034,4.590032,8.63151,0.0070249503,0.004581489,0.002443461,20240202_130819_105
0.9529416,4.5948176,8.636295,0.008246681,0.0033597588,-0.0,20240202_130819_107
0.948156,4.5852466,8.626724,0.008246681,0.0021380284,-0.0,20240202_130819_109
0.94337034,4.575675,8.621938,0.0070249503,0.0033597588,-0.0,20240202_130819_112
0.9385847,4.5804605,8.626724,0.009468411,0.004581489,-0.0,20240202_130819_113
0.933799,4.575675,8.612367,0.0106901415,0.0033597588,-0.0012217305,20240202_130819_116
0.933799,4.5708895,8.617152,0.008246681,0.0021380284,-0.002443461,20240202_130819_118
0.933799,4.566104,8.621938,0.009468411,-3.0543262E-4,-0.002443461,20240202_130819_121
0.9385847,4.5804605,8.607581,0.008246681,-0.0015271631,-0.002443461,20240202_130819_123
0.9385847,4.566104,8.59801,0.0070249503,-3.0543262E-4,-0.0012217305,20240202_130819_125
0.933799,4.5804605,8.602796,0.008246681,-0.0027488936,-0.0012217305,20240202_130819_127
0.9385847,4.5852466,8.607581,0.00580322,-0.0027488936,-0.0,20240202_130819_129
0.9242278,4.5948176,8.626724,0.00580322,-0.0015271631,-0.0,20240202_130819_131
0.9385847,4.599603,8.59801,0.0033597588,-0.0027488936,-0.0012217305,20240202_130819_133
0.9194421,4.5852466,8.617152,0.0021380284,-0.0015271631,-0.0012217305,20240202_130819_136
0.9242278,4.604389,8.617152,9.162979E-4,-0.0015271631,-0.0012217305,20240202_130819_137
0.9290134,4.5948176,8.607581,9.162979E-4,-0.005192355,-0.0012217305,20240202_130819_140
0.9290134,4.590032,8.56451,-0.0015271631,-0.003970624,-0.0012217305,20240202_130819_141
0.933799,4.590032,8.588439,-0.0015271631,-0.003970624,-0.002443461,20240202_130819_144
0.9290134,4.5708895,8.593225,-0.0027488936,-0.006414085,-0.002443461,20240202_130819_146
0.9194421,4.5804605,8.583653,-0.0015271631,-0.005192355,-0.002443461,20240202_130819_148
0.9385847,4.5852466,8.593225,-0.003970624,-0.003970624,-0.0036651916,20240202_130819_151
0.9242278,4.6091747,8.602796,-0.003970624,-0.003970624,-0.0036651916,20240202_130819_153
0.9385847,4.6139603,8.612367,-0.003970624,-0.0027488936,-0.002443461,20240202_130819_155
0.933799,4.604389,8.602796,-0.0027488936,9.162979E-4,-0.002443461,20240202_130819_157
0.9242278,4.6091747,8.612367,-0.003970624,-0.0015271631,-0.002443461,20240202_130819_159
0.933799,4.618746,8.59801,-0.005192355,9.162979E-4,-0.0012217305,20240202_130819_161
0.9194421,4.6139603,8.621938,-0.005192355,0.004581489,-0.0012217305,20240202_130819_163
0.9290134,4.6091747,8.593225,-0.005192355,0.0021380284,-0.0,20240202_130819_165
0.9290134,4.6139603,8.583653,-0.005192355,0.00580322,0.0012217305,20240202_130819_167
0.933799,4.599603,8.559725,-0.003970624,0.004581489,0.0012217305,20240202_130819_170
0.9385847,4.604389,8.574081,-0.003970624,0.0033597588,0.0012217305,20240202_130819_172
0.9290134,4.6091747,8.588439,-0.003970624,0.0021380284,0.0012217305,20240202_130819_174
0.9379865,4.6235313,8.59801,-0.005192355,-3.0543262E-4,0.002443461,20240202_130819_177
0.9290134,4.6091747,8.602796,-0.0076358155,9.162979E-4,0.0022907446,20240202_130819_178
0.91465646,4.604389,8.612367,-0.010079277,-0.0015271631,0.0035124752,20240202_130819_180
0.9290134,4.6091747,8.602796,-0.008857546,-0.0015271631,0.0022907446,20240202_130819_183
0.94755775,4.6091747,8.59801,-0.011301007,-0.0027488936,0.0022907446,20240202_130819_185
0.933799,4.599603,8.621938,-0.011301007,-0.0015271631,0.0035124752,20240202_130819_186
0.933799,4.604389,8.602796,-0.010079277,-0.0015271631,0.0035124752,20240202_130819_189
0.94337034,4.5852466,8.602796,-0.011301007,9.162979E-4,0.0035124752,20240202_130819_192
0.94337034,4.599603,8.593225,-0.0125227375,-0.0027488936,0.0047342055,20240202_130819_193
0.9290134,4.6139603,8.607581,-0.0125227375,-3.0543262E-4,0.0071776668,20240202_130819_196
0.9242278,4.590032,8.602796,-0.013744468,9.162979E-4,0.0071776668,20240202_130819_197
0.9290134,4.604389,8.602796,-0.011301007,-0.0015271631,0.008399397,20240202_130819_200
0.933799,4.599603,8.607581,-0.010079277,0.004581489,0.008552114,20240202_130819_202
0.933799,4.5948176,8.607581,-0.008857546,0.004581489,0.009773844,20240202_130819_205
0.9529416,4.5852466,8.626724,-0.0076358155,0.00580322,0.009773844,20240202_130819_207
0.933799,4.575675,8.602796,-0.006414085,0.00580322,0.010995574,20240202_130819_208
0.94337034,4.5852466,8.612367,-0.005192355,0.008246681,0.007330383,20240202_130819_210
0.95772725,4.5852466,8.607581,-0.00290161,0.008246681,0.008552114,20240202_130819_213
0.95772725,4.590032,8.621938,-0.0016798794,0.011911872,0.0061086523,20240202_130819_214
0.971486,4.604389,8.63151,-0.00290161,0.011911872,0.008552114,20240202_130819_218
0.9529416,4.5948176,8.636295,-4.5814895E-4,0.009468411,0.0061086523,20240202_130819_220
0.95712906,4.599603,8.655437,-4.5814895E-4,0.0154243475,0.007330383,20240202_130819_221
0.94337034,4.5804605,8.650652,-0.0015271631,0.013133603,0.0036651916,20240202_130819_224
0.9529416,4.566104,8.650652,-0.0016798794,0.013133603,0.004886922,20240202_130819_225
0.94337034,4.566104,8.645866,7.6358154E-4,0.0154243475,0.0036651916,20240202_130819_228
0.94337034,4.566104,8.626724,0.001985312,0.0143553335,0.002443461,20240202_130819_229
0.933799,4.5469613,8.59801,0.0033597588,0.0070249503,0.0036651916,20240202_130819_232
0.94337034,4.551747,8.621938,0.0021380284,0.009468411,0.0012217305,20240202_130819_234
0.95772725,4.542176,8.626724,0.0021380284,0.009468411,0.0012217305,20240202_130819_236
0.95772725,4.566104,8.641081,0.0033597588,0.00580322,-0.0,20240202_130819_238
0.95772725,4.5565324,8.650652,0.0021380284,0.00580322,-0.0,20240202_130819_241
0.948156,4.566104,8.645866,0.0021380284,0.004581489,0.0012217305,20240202_130819_242
0.94337034,4.5565324,8.650652,0.004581489,0.0033597588,-0.002443461,20240202_130819_245
0.94337034,4.551747,8.641081,0.00580322,0.0070249503,-0.0012217305,20240202_130819_247
0.9529416,4.5469613,8.617152,0.0033597588,0.0033597588,-0.0036651916,20240202_130819_250
0.948156,4.551747,8.63151,0.00580322,9.162979E-4,-0.002443461,20240202_130819_252
0.948156,4.5613184,8.63151,0.004581489,0.00580322,-0.0036651916,20240202_130819_253
0.95772725,4.575675,8.607581,0.008246681,0.0033597588,-0.004886922,20240202_130819_256
0.96729857,4.566104,8.650652,0.0070249503,9.162979E-4,-0.0061086523,20240202_130819_258
0.94337034,4.5852466,8.636295,0.008246681,0.0070249503,-0.007330383,20240202_130819_260
0.9385847,4.5852466,8.645866,0.009468411,0.0070249503,-0.0061086523,20240202_130819_262
0.9385847,4.5804605,8.645866,0.011911872,0.008246681,-0.007330383,20240202_130819_264
0.933799,4.566104,8.63151,0.013133603,0.009468411,-0.010995574,20240202_130819_267
0.9385847,4.575675,8.636295,0.013133603,0.013133603,-0.010995574,20240202_130819_269
0.9290134,4.575675,8.617152,0.015577064,0.013133603,-0.009773844,20240202_130819_270
0.9385847,4.575675,8.617152,0.016798794,0.015577064,-0.010842858,20240202_130819_273
0.94337034,4.5708895,8.607581,0.016798794,0.01786781,-0.010842858,20240202_130819_274
0.933799,4.5708895,8.612367,0.019089539,0.018020526,-0.010842858,20240202_130819_277
0.9385847,4.5804605,8.612367,0.01786781,0.02031127,-0.0096211275,20240202_130819_279
0.91465646,4.5708895,8.626724,0.016646078,0.02397646,-0.008399397,20240202_130819_281
0.90029955,4.566104,8.63151,0.016646078,0.02397646,-0.0071776668,20240202_130819_284
0.8955139,4.5565324,8.636295,0.01786781,0.026419923,-0.0047342055,20240202_130819_286
0.89072824,4.5708895,8.626724,0.01786781,0.031306844,-0.0035124752,20240202_130819_288
0.8955139,4.566104,8.626724,0.0154243475,0.030085113,-0.0010690142,20240202_130819_290
0.89072824,4.575675,8.617152,0.019089539,0.031306844,0.0013744468,20240202_130819_292
0.89072824,4.5804605,8.626724,0.02031127,0.032528576,0.0050396384,20240202_130819_295
0.8955139,4.566104,8.621938,0.02031127,0.031306844,0.007483099,20240202_130819_297
0.90029955,4.590032,8.617152,0.02031127,0.030085113,0.00870483,20240202_130819_298
0.90508515,4.590032,8.617152,0.02031127,0.031306844,0.012370021,20240202_130819_302
0.8859426,4.6139603,8.626724,0.021533,0.028863383,0.011148291,20240202_130819_303
0.8811569,4.633103,8.612367,0.021533,0.025198191,0.011148291,20240202_130819_305
0.8811569,4.6283174,8.621938,0.021533,0.025198191,0.00870483,20240202_130819_307
0.90029955,4.6283174,8.621938,0.02275473,0.02275473,0.0062613687,20240202_130819_309
0.8955139,4.642674,8.612367,0.02275473,0.020463986,0.0062613687,20240202_130819_311
0.91465646,4.64746,8.59801,0.02275473,0.015577064,0.0038179078,20240202_130819_314
0.91465646,4.6283174,8.593225,0.02275473,0.013133603,0.0038179078,20240202_130819_315
0.9385847,4.633103,8.602796,0.02275473,0.009468411,0.0013744468,20240202_130819_319
0.948156,4.6235313,8.612367,0.021533,0.0106901415,-0.0010690142,20240202_130819_320
0.9290134,4.633103,8.626724,0.02031127,0.0070249503,-0.0022907446,20240202_130819_322
0.933799,4.618746,8.63151,0.02031127,0.0070249503,-0.0022907446,20240202_130819_324
0.94337034,4.6283174,8.612367,0.018020526,0.0021380284,-0.0036651916,20240202_130819_326
0.9385847,4.6091747,8.593225,0.015577064,0.0021380284,-0.0036651916,20240202_130819_329
0.9385847,4.599603,8.583653,0.0143553335,0.0021380284,-0.004886922,20240202_130819_331
0.9529416,4.5613184,8.56451,0.013133603,-0.0015271631,-0.004886922,20240202_130819_333
0.9529416,4.5708895,8.578867,0.013133603,-3.0543262E-4,-0.0061086523,20240202_130819_335
0.96729857,4.5708895,8.583653,0.0106901415,9.162979E-4,-0.004886922,20240202_130819_337
0.96729857,4.566104,8.574081,0.008246681,-0.0015271631,-0.004886922,20240202_130819_339
0.96729857,4.575675,8.583653,0.00580322,0.0033597588,-0.004886922,20240202_130819_341
0.9529416,4.575675,8.59801,0.004581489,0.004581489,-0.0061086523,20240202_130819_344
0.9625129,4.5804605,8.593225,0.0021380284,0.0021380284,-0.008552114,20240202_130819_345
0.96729857,4.566104,8.583653,-3.0543262E-4,0.0033597588,-0.008552114,20240202_130819_348
0.95772725,4.5613184,8.583653,-0.0027488936,0.0070249503,-0.008552114,20240202_130819_351
0.948156,4.566104,8.56451,-0.0027488936,0.00580322,-0.008552114,20240202_130819_353
0.9529416,4.5613184,8.574081,-0.003970624,0.0021380284,-0.009773844,20240202_130819_354
0.948156,4.5565324,8.569296,-0.005192355,0.004581489,-0.010995574,20240202_130819_356
0.948156,4.5804605,8.578867,-0.005192355,0.0033597588,-0.010995574,20240202_130819_358
0.933799,4.575675,8.574081,-0.006414085,-0.0015271631,-0.011148291,20240202_130819_361
0.9385847,4.5804605,8.578867,-0.006414085,-0.0015271631,-0.00992656,20240202_130819_363
0.9290134,4.599603,8.607581,-0.006414085,-0.0027488936,-0.011148291,20240202_130819_365
0.9290134,4.604389,8.621938,-0.0076358155,-0.006414085,-0.011148291,20240202_130819_367
0.9098708,4.604389,8.63151,-0.00870483,-0.008857546,-0.012370021,20240202_130819_369
0.9098708,4.618746,8.63151,-0.0076358155,-0.003970624,-0.012370021,20240202_130819_372
0.90029955,4.6091747,8.660223,-0.00870483,-0.006414085,-0.013591751,20240202_130819_374
0.89072824,4.604389,8.660223,-0.0062613687,-0.00992656,-0.012370021,20240202_130819_377
0.89072824,4.6091747,8.645866,-0.0076358155,-0.005192355,-0.012370021,20240202_130819_378
0.87637126,4.5948176,8.660223,-0.003970624,-0.003970624,-0.012370021,20240202_130819_380
0.89072824,4.590032,8.650652,-0.0027488936,-0.0076358155,-0.00992656,20240202_130819_382
0.90029955,4.604389,8.655437,9.162979E-4,-0.0015271631,-0.008552114,20240202_130819_384
0.90029955,4.5948176,8.660223,0.0033597588,-3.0543262E-4,-0.007330383,20240202_130819_387
0.8811569,4.5948176,8.617152,0.0070249503,-0.0015271631,-0.007330383,20240202_130819_388
0.8859426,4.590032,8.621938,0.009468411,-3.0543262E-4,-0.004886922,20240202_130819_390
0.8859426,4.5948176,8.626724,0.013133603,9.162979E-4,-0.0036651916,20240202_130819_392
0.8955139,4.599603,8.607581,0.018020526,-3.0543262E-4,-0.0036651916,20240202_130819_395
0.90029955,4.5948176,8.612367,0.02031127,0.0033597588,-0.0022907446,20240202_130819_397
0.90029955,4.6091747,8.59801,0.02031127,0.004581489,-0.0022907446,20240202_130819_399
0.8955139,4.6139603,8.607581,0.021533,-3.0543262E-4,1.5271631E-4,20240202_130819_401
0.8955139,4.6091747,8.621938,0.021533,0.0033597588,-0.0022907446,20240202_130819_404
0.90029955,4.604389,8.636295,0.021533,0.00580322,-0.0010690142,20240202_130819_406
0.89072824,4.618746,8.617152,0.021533,0.0021380284,-0.0010690142,20240202_130819_408
0.90029955,4.6283174,8.612367,0.019089539,0.0033597588,-0.0022907446,20240202_130819_409
0.90029955,4.618746,8.59801,0.01786781,0.00580322,-0.0022907446,20240202_130819_412
0.90508515,4.599603,8.583653,0.013133603,9.162979E-4,-0.0012217305,20240202_130819_414
0.91465646,4.604389,8.574081,0.013133603,9.162979E-4,-0.002443461,20240202_130819_416
0.90029955,4.599603,8.583653,0.011911872,-3.0543262E-4,-0.0036651916,20240202_130819_419
0.91465646,4.5804605,8.574081,0.008246681,-0.0062613687,-0.002443461,20240202_130819_421
0.89072824,4.599603,8.569296,0.00580322,-0.003970624,-0.002443461,20240202_130819_423
0.8955139,4.5852466,8.583653,0.0033597588,-0.0027488936,-0.002443461,20240202_130819_425
0.8955139,4.5948176,8.578867,9.162979E-4,-0.006414085,-0.002443461,20240202_130819_428
0.8955139,4.590032,8.578867,-3.0543262E-4,-0.0076358155,-0.002443461,20240202_130819_429
0.90508515,4.5852466,8.578867,-0.005192355,-0.008857546,-0.0013744468,20240202_130819_432
0.8955139,4.5948176,8.588439,-0.0076358155,-0.011148291,-0.0013744468,20240202_130819_433
0.90029955,4.5948176,8.578867,-0.010079277,-0.012370021,-0.0025961774,20240202_130819_437
0.9098708,4.5852466,8.569296,-0.0125227375,-0.012370021,-0.0013744468,20240202_130819_438
0.91465646,4.599603,8.59801,-0.013744468,-0.012370021,-0.0025961774,20240202_130819_440
0.9098708,4.6091747,8.59801,-0.013744468,-0.012370021,-1.5271631E-4,20240202_130819_442
0.90508515,4.6139603,8.593225,-0.014966198,-0.010079277,-0.0013744468,20240202_130819_444
0.9098708,4.618746,8.602796,-0.01740966,-0.0076358155,-1.5271631E-4,20240202_130819_447
0.90029955,4.6139603,8.612367,-0.016187929,-0.011301007,-1.5271631E-4,20240202_130819_449
0.9098708,4.6235313,8.602796,-0.01740966,-0.006414085,-0.0013744468,20240202_130819_452
0.9098708,4.6091747,8.612367,-0.016187929,-0.005192355,-1.5271631E-4,20240202_130819_453
0.90508515,4.5948176,8.607581,-0.014966198,-0.006414085,-1.5271631E-4,20240202_130819_455
0.90029955,4.604389,8.617152,-0.0125227375,-0.003970624,0.0010690142,20240202_130819_458
0.90508515,4.604389,8.607581,-0.0125227375,-0.003970624,0.0022907446,20240202_130819_460
0.9194421,4.590032,8.602796,-0.008857546,-0.003970624,0.0047342055,20240202_130819_462
0.9098708,4.6139603,8.59801,-0.008857546,-0.0015271631,0.0047342055,20240202_130819_464
0.91465646,4.6139603,8.617152,-0.008857546,-0.0027488936,0.005955936,20240202_130819_465
0.90029955,4.6139603,8.626724,-0.006414085,-0.005192355,0.0071776668,20240202_130819_468
0.90508515,4.6139603,8.607581,-0.006414085,-0.0027488936,0.008552114,20240202_130819_470
0.89072824,4.6283174,8.621938,-0.005192355,-0.003970624,0.009773844,20240202_130819_473
0.91465646,4.6235313,8.607581,-0.006414085,-0.003970624,0.009773844,20240202_130819_474
0.90508515,4.6283174,8.612367,-0.005192355,-0.006414085,0.010995574,20240202_130819_477
0.91465646,4.6139603,8.621938,-0.0076358155,-0.006414085,0.010842858,20240202_130819_478
0.9194421,4.6235313,8.602796,-0.0076358155,-0.0027488936,0.010995574,20240202_130819_481
0.91465646,4.633103,8.612367,-0.008857546,-0.0076358155,0.010842858,20240202_130819_483
0.9098708,4.6235313,8.607581,-0.010079277,-0.0027488936,0.008399397,20240202_130819_485
0.90029955,4.618746,8.621938,-0.011301007,-0.005192355,0.0096211275,20240202_130819_488
0.91465646,4.6091747,8.602796,-0.010079277,-0.006414085,0.0096211275,20240202_130819_490
0.933799,4.590032,8.583653,-0.011301007,-0.0027488936,0.012064588,20240202_130819_492
0.91465646,4.5948176,8.578867,-0.008857546,-0.0015271631,0.010842858,20240202_130819_494
0.9242278,4.604389,8.588439,-0.008857546,-0.0027488936,0.012064588,20240202_130819_496
0.9242278,4.599603,8.59801,-0.010079277,-3.0543262E-4,0.013286319,20240202_130819_499
0.9242278,4.599603,8.593225,-0.010079277,9.162979E-4,0.013286319,20240202_130819_501
0.933799,4.604389,8.59801,-0.011301007,9.162979E-4,0.01450805,20240202_130819_502
0.933799,4.5948176,8.602796,-0.010079277,0.0033597588,0.014660766,20240202_130819_505
0.9385847,4.5948176,8.612367,-0.010231993,0.0070249503,0.017104227,20240202_130819_507
0.9242278,4.5948176,8.612367,-0.009010263,0.00580322,0.015882496,20240202_130819_509
0.9098708,4.604389,8.588439,-0.009010263,0.008246681,0.015882496,20240202_130819_511
0.9242278,4.5852466,8.617152,-0.010231993,0.011911872,0.017104227,20240202_130819_513
0.9194421,4.5948176,8.612367,-0.010231993,0.0106901415,0.02076942,20240202_130819_515
0.9194421,4.5804605,8.617152,-0.009010263,0.0143553335,0.021991149,20240202_130819_517
0.9290134,4.575675,8.63151,-0.007788532,0.016798794,0.02321288,20240202_130819_519
0.9194421,4.575675,8.626724,-0.0065668016,0.018020526,0.02687807,20240202_130819_521
0.91465646,4.575675,8.626724,-0.0053450707,0.018020526,0.028099801,20240202_130819_524
0.90508515,4.5852466,8.621938,-0.00290161,0.02275473,0.029321533,20240202_130819_525
0.9194421,4.604389,8.626724,-0.0041233404,0.020463986,0.032986723,20240202_130819_529
0.9098708,4.5852466,8.607581,-0.0018325958,0.018020526,0.035430185,20240202_130819_530
0.90508515,4.6091747,8.617152,-0.0018325958,0.019242255,0.035430185,20240202_130819_533
0.90029955,4.6091747,8.617152,-6.1086525E-4,0.019242255,0.035430185,20240202_130819_534
0.9098708,4.6091747,8.607581,-6.1086525E-4,0.016798794,0.035430185,20240202_130819_537
0.9098708,4.5948176,8.617152,-0.0016798794,0.019242255,0.034208454,20240202_130819_540
0.90508515,4.604389,8.617152,-0.00290161,0.015577064,0.032986723,20240202_130819_541
0.90029955,4.604389,8.621938,-0.0041233404,0.013133603,0.034208454,20240202_130819_543
0.90029955,4.590032,8.617152,-0.0065668016,0.013133603,0.03176499,20240202_130819_544
0.8955139,4.6091747,8.612367,-0.009010263,0.0106901415,0.030543262,20240202_130819_548
0.9194421,4.599603,8.593225,-0.011453724,0.011911872,0.028099801,20240202_130819_550
0.9242278,4.590032,8.593225,-0.011453724,0.0070249503,0.02565634,20240202_130819_552
0.9098708,4.590032,8.578867,-0.016340645,0.004581489,0.023060163,20240202_130819_553
0.94337034,4.5948176,8.583653,-0.01863139,0.004581489,0.019394971,20240202_130819_556
0.94337034,4.5948176,8.569296,-0.01985312,9.162979E-4,0.01817324,20240202_130819_558
0.9529416,4.590032,8.593225,-0.022296581,9.162979E-4,0.01572978,20240202_130819_560
0.948156,4.5948176,8.588439,-0.027183503,-0.0015271631,0.013286319,20240202_130819_562
0.9194421,4.5948176,8.59801,-0.029626964,-0.003970624,0.010842858,20240202_130819_564
0.9290134,4.575675,8.59801,-0.030848695,-0.0027488936,0.0096211275,20240202_130819_566
0.933799,4.5613184,8.593225,-0.034513887,-0.005192355,0.008246681,20240202_130819_569
0.933799,4.5708895,8.602796,-0.0355829,-0.008857546,0.00580322,20240202_130819_571
0.9529416,4.551747,8.593225,-0.038026363,-0.008857546,0.00580322,20240202_130819_573
0.95772725,4.5613184,8.588439,-0.038026363,-0.0076358155,0.004581489,20240202_130819_575
0.9625129,4.5613184,8.593225,-0.0355829,-0.0125227375,0.0033597588,20240202_130819_577
0.95772725,4.5613184,8.59801,-0.038026363,-0.013744468,0.0021380284,20240202_130819_580
0.9667004,4.5804605,8.621938,-0.0355829,-0.011301007,0.0033597588,20240202_130819_581
0.9619147,4.5852466,8.636295,-0.038026363,-0.013744468,0.0021380284,20240202_130819_584
0.9529416,4.575675,8.650652,-0.0355829,-0.0125227375,0.0021380284,20240202_130819_585
0.95712906,4.5708895,8.650652,-0.03436117,-0.011301007,0.0021380284,20240202_130819_589
0.9529416,4.566104,8.669795,-0.03313944,-0.011301007,9.162979E-4,20240202_130819_591
0.9619147,4.566104,8.669795,-0.03313944,-0.010079277,9.162979E-4,20240202_130819_593
0.9523434,4.5804605,8.674581,-0.029474247,-0.008857546,-3.0543262E-4,20240202_130819_595
0.9667004,4.5708895,8.650652,-0.027030786,-0.006414085,-1.5271631E-4,20240202_130819_597
0.9529416,4.575675,8.636295,-0.024587326,-0.008857546,-1.5271631E-4,20240202_130819_599
0.9529416,4.575675,8.650652,-0.01985312,-0.0076358155,-0.0013744468,20240202_130819_601
0.9667004,4.5708895,8.645866,-0.01740966,-0.006414085,-0.0038179078,20240202_130819_603
0.9619147,4.566104,8.669795,-0.013744468,-0.003970624,-0.0025961774,20240202_130819_605
0.95712906,4.575675,8.679366,-0.011301007,-0.005192355,-0.0025961774,20240202_130819_608
0.95712906,4.566104,8.655437,-0.0076358155,-0.003970624,-0.0050396384,20240202_130819_609
0.948156,4.5708895,8.674581,-0.0027488936,-0.0015271631,-0.002443461,20240202_130819_612
0.9619147,4.5804605,8.679366,9.162979E-4,-3.0543262E-4,-0.0036651916,20240202_130819_614
0.9619147,4.5804605,8.655437,0.0033597588,-0.0015271631,-0.004886922,20240202_130819_616
0.9523434,4.5852466,8.655437,0.0070249503,-0.0015271631,-0.004886922,20240202_130819_618
0.971486,4.599603,8.645866,0.009468411,-3.0543262E-4,-0.007330383,20240202_130819_620
0.9523434,4.590032,8.669795,0.0106901415,-0.005192355,-0.0061086523,20240202_130819_622
0.94755775,4.5948176,8.660223,0.011911872,-0.0038179078,-0.009773844,20240202_130819_624
0.93320084,4.5942197,8.655437,0.011911872,-0.0013744468,-0.008552114,20240202_130819_628
0.9379865,4.5804605,8.655437,0.011911872,-0.0038179078,-0.010995574,20240202_130819_629
0.933799,4.5565324,8.655437,0.011911872,-0.0025961774,-0.010995574,20240202_130819_632
0.90508515,4.551747,8.641679,0.011911872,-0.0013744468,-0.010995574,20240202_130819_633
0.8955139,4.518247,8.617751,0.013133603,-0.0062613687,-0.012217305,20240202_130819_635
0.89072824,4.532604,8.5938225,0.013133603,-0.0050396384,-0.009773844,20240202_130819_637
0.91465646,4.5373898,8.603394,0.013133603,-0.0050396384,-0.010995574,20240202_130819_640
0.9242278,4.551747,8.598608,0.011911872,-0.007483099,-0.008552114,20240202_130819_642
0.9290134,4.575675,8.612965,0.013133603,-0.0062613687,-0.008552114,20240202_130819_643
0.9290134,4.575675,8.608179,0.011911872,-0.0038179078,-0.008552114,20240202_130819_646
0.9242278,4.575675,8.622537,0.0106901415,-0.0025961774,-0.007330383,20240202_130819_647
0.9194421,4.590032,8.636295,0.0106901415,-0.0025961774,-0.008552114,20240202_130819_650
0.91465646,4.599603,8.621938,0.008246681,9.162979E-4,-0.007330383,20240202_130819_652
0.91465646,4.5948176,8.617152,0.008246681,-0.0013744468,-0.007330383,20240202_130819_654
0.9098708,4.590032,8.617751,0.0070249503,0.0021380284,-0.008552114,20240202_130819_657
0.90508515,4.599603,8.612965,0.00580322,0.0033597588,-0.008552114,20240202_130819_659
0.90029955,4.590032,8.612965,0.004581489,9.162979E-4,-0.008552114,20240202_130819_661
0.9194421,4.5948176,8.621938,0.0021380284,0.004581489,-0.008552114,20240202_130819_663
0.91465646,4.604389,8.612367,0.0021380284,0.00580322,-0.009773844,20240202_130819_666
0.9098708,4.5852466,8.5938225,9.162979E-4,0.004581489,-0.008552114,20240202_130819_667
0.9194421,4.5804605,8.598608,-0.0015271631,0.0021380284,-0.009773844,20240202_130819_670
0.9194421,4.5804605,8.589037,-3.0543262E-4,0.004581489,-0.009773844,20240202_130819_672
0.91465646,4.5804605,8.612965,-0.0015271631,0.004581489,-0.008552114,20240202_130819_674
0.90029955,4.5708895,8.603394,-0.0027488936,0.0033597588,-0.008552114,20240202_130819_676
0.91465646,4.575675,8.603394,-0.0027488936,0.0033597588,-0.007330383,20240202_130819_679
0.90508515,4.5565324,8.584251,-0.003970624,0.0033597588,-0.007330383,20240202_130819_680
0.90029955,4.5613184,8.589037,-0.003970624,0.0033597588,-0.004886922,20240202_130819_683
0.9098708,4.5708895,8.612965,-0.003970624,0.0021380284,-0.004886922,20240202_130819_685
0.90029955,4.575675,8.603394,-0.006414085,-3.0543262E-4,-0.0025961774,20240202_130819_686
0.91465646,4.5948176,8.589037,-0.005192355,-3.0543262E-4,-0.002443461,20240202_130819_689
0.90029955,4.5948176,8.632108,-0.006414085,-0.0015271631,-0.0013744468,20240202_130819_691
0.90508515,4.5852466,8.617751,-0.006414085,9.162979E-4,-0.0,20240202_130819_693
0.8955139,4.5852466,8.621938,-0.0076358155,-0.0015271631,-1.5271631E-4,20240202_130819_695
0.89072824,4.5852466,8.617152,-0.006414085,-0.003970624,0.0022907446,20240202_130819_697
0.90508515,4.590032,8.602796,-0.006414085,-0.0015271631,0.0036651916,20240202_130819_699
0.91465646,4.590032,8.621938,-0.005192355,-0.0027488936,0.0036651916,20240202_130819_702
0.91465646,4.604389,8.612367,-0.003970624,-0.0015271631,0.004886922,20240202_130819_704
0.9098708,4.590032,8.621938,-0.0027488936,-0.0015271631,0.0061086523,20240202_130819_706
0.9242278,4.5948176,8.617152,-3.0543262E-4,9.162979E-4,0.0061086523,20240202_130819_708
0.91465646,4.599603,8.626724,-3.0543262E-4,9.162979E-4,0.007330383,20240202_130819_710
0.9194421,4.604389,8.612367,9.162979E-4,9.162979E-4,0.007330383,20240202_130819_713
0.9194421,4.5804605,8.607581,0.004428773,0.0033597588,0.008552114,20240202_130819_714
0.9098708,4.5804605,8.607581,0.006872234,0.004581489,0.009773844,20240202_130819_717
0.9385847,4.5708895,8.617152,0.008093964,0.004581489,0.009773844,20240202_130819_719
0.9290134,4.575675,8.59801,0.009315695,0.00580322,0.009773844,20240202_130819_721
0.9242278,4.5708895,8.617152,0.010537425,0.00580322,0.010995574,20240202_130819_723
0.9290134,4.5708895,8.636295,0.012980887,0.008246681,0.012217305,20240202_130819_725
0.9385847,4.5852466,8.621938,0.012980887,0.009468411,0.010995574,20240202_130819_728
0.9385847,4.5708895,8.636295,0.014202617,0.0106901415,0.012370021,20240202_130819_729
0.933799,4.5708895,8.636295,0.012980887,0.0106901415,0.011148291,20240202_130819_732
0.9242278,4.5708895,8.626724,0.016646078,0.013133603,0.011148291,20240202_130819_734
0.9194421,4.551747,8.603394,0.016646078,0.011911872,0.00992656,20240202_130819_736
0.9290134,4.5613184,8.626724,0.019089539,0.011911872,0.00992656,20240202_130819_738
0.9290134,4.542176,8.5938225,0.021533,0.0143553335,0.011148291,20240202_130819_741
0.933799,4.5469613,8.621938,0.02031127,0.0143553335,0.011148291,20240202_130819_742
0.9242278,4.551747,8.641081,0.02275473,0.013133603,0.012370021,20240202_130819_745
0.9242278,4.542176,8.626724,0.02275473,0.013133603,0.012370021,20240202_130819_747
0.9194421,4.5469613,8.636295,0.02275473,0.0143553335,0.013591751,20240202_130819_749
0.9242278,4.551747,8.650652,0.025198191,0.013133603,0.014813482,20240202_130819_751
0.9290134,4.551747,8.655437,0.025198191,0.013133603,0.014813482,20240202_130819_753
0.9242278,4.575675,8.636295,0.027641652,0.0143553335,0.016035212,20240202_130819_756
0.9290134,4.5852466,8.660223,0.028863383,0.0143553335,0.016035212,20240202_130819_759
0.91465646,4.590032,8.645866,0.029932396,0.0143553335,0.016035212,20240202_130819_760
0.93320084,4.6085763,8.674581,0.029932396,0.0143553335,0.016035212,20240202_130819_762
0.94277215,4.6229334,8.665009,0.030085113,0.018020526,0.013591751,20240202_130819_764
0.9284152,4.6325045,8.684152,0.030085113,0.015577064,0.011148291,20240202_130819_766
0.9236295,4.6468616,8.669795,0.028863383,0.015577064,0.00992656,20240202_130819_769
0.9284152,4.627719,8.665009,0.026419923,0.019242255,0.007483099,20240202_130819_770
0.91405827,4.627719,8.650652,0.026419923,0.018020526,0.0050396384,20240202_130819_773
0.9098708,4.590032,8.641081,0.02397646,0.013133603,0.0062613687,20240202_130819_775
0.90508515,4.566104,8.621938,0.02275473,0.015577064,0.0025961774,20240202_130819_777
0.9098708,4.566104,8.5938225,0.02275473,0.0143553335,0.0038179078,20240202_130819_779
0.91465646,4.5565324,8.5938225,0.02031127,0.013133603,0.0025961774,20240202_130819_781
0.9194421,4.5565324,8.584251,0.01786781,0.008246681,-0.0010690142,20240202_130819_784
0.9098708,4.566104,8.589037,0.014202617,0.009468411,-0.0012217305,20240202_130819_785
0.9194421,4.5852466,8.578867,0.011911872,0.00580322,-0.0036651916,20240202_130819_788
0.9194421,4.5852466,8.583653,0.0106901415,0.0033597588,-0.0036651916,20240202_130819_789
0.91465646,4.5852466,8.588439,0.008246681,0.004581489,-0.004886922,20240202_130819_792
0.90508515,4.566104,8.603394,0.00580322,0.0033597588,-0.0061086523,20240202_130819_794
0.91465646,4.566104,8.579466,0.0021380284,9.162979E-4,-0.007330383,20240202_130819_796
0.9098708,4.5708895,8.589037,-3.0543262E-4,9.162979E-4,-0.007330383,20240202_130819_799
0.9194421,4.5613184,8.579466,-3.0543262E-4,-3.0543262E-4,-0.007330383,20240202_130819_800
0.9242278,4.575675,8.593225,-0.003970624,9.162979E-4,-0.007330383,20240202_130819_803
0.91465646,4.590032,8.59801,-0.003970624,-0.0027488936,-0.007483099,20240202_130819_806
0.9098708,4.5948176,8.612367,-0.006414085,-0.0015271631,-0.00870483,20240202_130819_807
0.9290134,4.599603,8.583653,-0.0076358155,-0.005192355,-0.007483099,20240202_130819_809
0.93320084,4.618746,8.607581,-0.008857546,-0.005192355,-0.00870483,20240202_130819_812
0.9194421,4.618746,8.583653,-0.011148291,-0.0076358155,-0.011148291,20240202_130819_813
0.9290134,4.6139603,8.593225,-0.011148291,-0.006414085,-0.011148291,20240202_130819_816
0.9242278,4.6139603,8.636295,-0.011148291,-0.00992656,-0.00992656,20240202_130819_818
0.91465646,4.5948176,8.593225,-0.014813482,-0.008857546,-0.011148291,20240202_130819_819
0.9290134,4.599603,8.602796,-0.013591751,-0.006414085,-0.011148291,20240202_130819_822
0.9290134,4.575675,8.602796,-0.014813482,-0.008857546,-0.011148291,20240202_130819_824
0.9385847,4.5852466,8.59801,-0.014813482,-0.008857546,-0.00992656,20240202_130819_826
0.9385847,4.5852466,8.593225,-0.014813482,-0.008857546,-0.011148291,20240202_130819_829
0.91465646,4.575675,8.602796,-0.013591751,-0.0076358155,-0.00992656,20240202_130819_830
0.933799,4.590032,8.621938,-0.013591751,-0.008857546,-0.00870483,20240202_130819_833
0.9242278,4.5852466,8.617152,-0.0125227375,-0.005192355,-0.00870483,20240202_130819_835
0.9385847,4.590032,8.63151,-0.011301007,-0.005192355,-0.007483099,20240202_130819_837
0.91465646,4.5948176,8.63151,-0.008857546,-0.0027488936,-0.0050396384,20240202_130819_840
0.9242278,4.590032,8.63151,-0.006414085,-3.0543262E-4,-0.0038179078,20240202_130819_841
0.9290134,4.604389,8.607581,-0.0027488936,-3.0543262E-4,-0.002443461,20240202_130819_843
0.91465646,4.599603,8.63151,-0.0015271631,0.0033597588,-0.0,20240202_130819_846
0.9242278,4.5948176,8.636295,-3.0543262E-4,0.0033597588,-0.0012217305,20240202_130819_848
0.91465646,4.5948176,8.626724,0.0033597588,0.0033597588,0.0012217305,20240202_130819_850
0.90508515,4.604389,8.621938,0.004581489,0.0070249503,0.0012217305,20240202_130819_853
0.90029955,4.599603,8.626724,0.006872234,0.008246681,0.0036651916,20240202_130819_854
0.9194421,4.6091747,8.641081,0.008093964,0.0070249503,0.002443461,20240202_130819_857
0.89072824,4.5804605,8.63151,0.008093964,0.008246681,0.0036651916,20240202_130819_858
0.9098708,4.599603,8.621938,0.011759156,0.009468411,0.0036651916,20240202_130819_862
0.90508515,4.599603,8.612367,0.011759156,0.0070249503,0.002443461,20240202_130819_863
0.9098708,4.5948176,8.63151,0.011759156,0.008246681,0.0036651916,20240202_130819_865
0.9242278,4.6091747,8.612367,0.011759156,0.0070249503,0.002443461,20240202_130819_868
0.9098708,4.6091747,8.607581,0.010537425,0.004581489,0.002443461,20240202_130819_869
0.90029955,4.6235313,8.626724,0.0106901415,0.004581489,0.0012217305,20240202_130819_872
0.90029955,4.6139603,8.617152,0.0106901415,0.0021380284,-0.0,20240202_130819_873
0.89072824,4.604389,8.588439,0.008246681,9.162979E-4,-0.0,20240202_130819_875
0.90508515,4.590032,8.583653,0.0070249503,-0.0015271631,-0.002443461,20240202_130819_878
0.91465646,4.590032,8.578867,0.004581489,-0.003970624,-0.002443461,20240202_130819_880
0.91465646,4.575675,8.569296,0.004581489,-0.006414085,-0.0036651916,20240202_130819_882
0.9242278,4.5948176,8.569296,-3.0543262E-4,-0.00870483,-0.004886922,20240202_130819_884
0.9194421,4.575675,8.583653,-0.003970624,-0.00870483,-0.0050396384,20240202_130819_886
0.9242278,4.5804605,8.583653,-0.006414085,-0.00992656,-0.0062613687,20240202_130819_889
0.9242278,4.5948176,8.588439,-0.0076358155,-0.0076358155,-0.0062613687,20240202_130819_890
0.9098708,4.575675,8.578867,-0.010079277,-0.008857546,-0.0062613687,20240202_130819_893
0.9194421,4.5804605,8.578867,-0.012370021,-0.013591751,-0.0062613687,20240202_130819_895
0.9194421,4.5948176,8.588439,-0.013591751,-0.011301007,-0.007483099,20240202_130819_897
0.933799,4.590032,8.593225,-0.017256944,-0.011148291,-0.007483099,20240202_130819_900
0.9290134,4.5852466,8.593225,-0.017256944,-0.013591751,-0.00870483,20240202_130819_902
0.9242278,4.590032,8.602796,-0.019700404,-0.010079277,-0.00870483,20240202_130819_904
0.9194421,4.5948176,8.588439,-0.018478673,-0.010079277,-0.0062613687,20240202_130819_906
0.9242278,4.590032,8.612367,-0.019700404,-0.013591751,-0.007483099,20240202_130819_908
0.9098708,4.604389,8.621938,-0.019700404,-0.0076358155,-0.007483099,20240202_130819_910
0.91465646,4.6091747,8.63151,-0.019700404,-0.0076358155,-0.0062613687,20240202_130819_912
0.9098708,4.6091747,8.612367,-0.019700404,-0.0076358155,-0.007483099,20240202_130819_914
0.91465646,4.590032,8.63151,-0.019700404,-0.006414085,-0.0050396384,20240202_130819_916
0.9098708,4.575675,8.59801,-0.014966198,-0.005192355,-0.0038179078,20240202_130819_919
0.90029955,4.590032,8.602796,-0.014966198,-0.006414085,-0.0025961774,20240202_130819_921
0.8955139,4.5852466,8.617152,-0.011301007,-0.0027488936,-0.0013744468,20240202_130819_923
0.8955139,4.599603,8.617152,-0.008857546,-0.003970624,0.0010690142,20240202_130819_925
0.90508515,4.5948176,8.636295,-0.006414085,-3.0543262E-4,0.002443461,20240202_130819_927
0.90029955,4.5948176,8.650652,-0.006414085,-0.0027488936,0.0035124752,20240202_130819_930
0.90029955,4.604389,8.636295,-0.003970624,-0.0027488936,0.004886922,20240202_130819_932
0.8811569,4.604389,8.645866,-0.0015271631,-0.0027488936,0.004886922,20240202_130819_933
0.8859426,4.604389,8.655437,9.162979E-4,9.162979E-4,0.004886922,20240202_130819_936
0.87637126,4.604389,8.660223,0.0021380284,-0.0027488936,0.007330383,20240202_130819_938
0.89072824,4.599603,8.636295,0.004581489,-0.0062613687,0.0061086523,20240202_130819_940
0.8859426,4.599603,8.636295,0.004581489,-0.0050396384,0.0061086523,20240202_130819_943
0.8811569,4.5852466,8.645866,0.0070249503,-0.007483099,0.0061086523,20240202_130819_944
0.8811569,4.590032,8.63151,0.008246681,-0.007483099,0.008552114,20240202_130819_946
0.8811569,4.5804605,8.612965,0.009315695,-0.00870483,0.009773844,20240202_130819_949
0.8955139,4.5852466,8.636295,0.010537425,-0.00870483,0.009773844,20240202_130819_951
0.90029955,4.575675,8.63151,0.011759156,-0.011148291,0.009773844,20240202_130819_954
0.89072824,4.590032,8.617152,0.011759156,-0.011148291,0.009773844,20240202_130819_956
0.8955139,4.575675,8.626724,0.012980887,-0.011148291,0.009773844,20240202_130819_957
0.8811569,4.5804605,8.621938,0.014202617,-0.013591751,0.009773844,20240202_130819_960
0.8955139,4.566104,8.621938,0.012980887,-0.013591751,0.008552114,20240202_130819_962
0.90029955,4.575675,8.617152,0.0154243475,-0.012370021,0.009773844,20240202_130819_964
0.91465646,4.566104,8.626724,0.016646078,-0.014813482,0.009773844,20240202_130819_966
0.9098708,4.5708895,8.602796,0.0154243475,-0.014813482,0.008552114,20240202_130819_968
0.933799,4.5804605,8.641081,0.016646078,-0.00992656,0.008552114,20240202_130819_970
0.9379865,4.5852466,8.650652,0.01786781,-0.00870483,0.009773844,20240202_130819_973
0.91465646,4.5804605,8.641081,0.016646078,-0.00992656,0.008552114,20240202_130819_974
0.9242278,4.599603,8.63151,0.016646078,-0.00870483,0.009773844,20240202_130819_979
0.9385847,4.575675,8.617152,0.016646078,-0.00870483,0.008552114,20240202_130819_980
0.948156,4.575675,8.607581,0.02031127,-0.00870483,0.008552114,20240202_130819_981
0.95712906,4.575675,8.607581,0.02031127,-0.00870483,0.008552114,20240202_130819_983
0.9667004,4.575675,8.602796,0.02275473,-0.00992656,0.007483099,20240202_130819_985
0.9906286,4.599603,8.617152,0.021533,-0.007483099,0.0062613687,20240202_130819_987
0.9906286,4.633103,8.617152,0.02031127,-0.007483099,0.0036651916,20240202_130819_989
1.0049855,4.6378884,8.621938,0.019089539,-0.00870483,0.002443461,20240202_130819_991
1.0145568,4.642076,8.641081,0.020463986,-0.0050396384,-0.0012217305,20240202_130819_994
1.0049855,4.6564326,8.645866,0.018020526,-0.0038179078,-0.0036651916,20240202_130819_996
1.0001999,4.651647,8.621938,0.015577064,-0.0038179078,-0.007330383,20240202_130819_998
0.98584294,4.6235313,8.626724,0.011911872,-0.0027488936,-0.008552114,20240202_130820_000
0.98584294,4.590032,8.588439,0.013133603,9.162979E-4,-0.010995574,20240202_130820_002
0.971486,4.5852466,8.583653,0.009468411,-0.003970624,-0.014660766,20240202_130820_005
0.9954142,4.5565324,8.554939,0.0070249503,-0.0027488936,-0.015882496,20240202_130820_006
0.9816555,4.5469613,8.554939,0.00580322,-0.0027488936,-0.015882496,20240202_130820_009
0.9816555,4.551747,8.550154,0.0033597588,-0.005192355,-0.017104227,20240202_130820_010
1.0049855,4.5565324,8.56451,-1.5271631E-4,-0.006414085,-0.017256944,20240202_130820_014
0.9768698,4.551747,8.559725,-0.0050396384,-0.005192355,-0.019700404,20240202_130820_017
0.9625129,4.5708895,8.56451,-0.007483099,-0.006414085,-0.019700404,20240202_130820_018
0.96729857,4.551747,8.593225,-0.011148291,-0.006414085,-0.019700404,20240202_130820_019
0.9529416,4.551747,8.578867,-0.014813482,-0.005192355,-0.020922136,20240202_130820_021
0.94337034,4.5469613,8.589037,-0.016035212,-0.006414085,-0.018478673,20240202_130820_024
0.9385847,4.5565324,8.579466,-0.018478673,-0.005192355,-0.019700404,20240202_130820_025
0.9385847,4.566104,8.583653,-0.019700404,-0.003970624,-0.018478673,20240202_130820_028
0.9385847,4.575675,8.588439,-0.022143865,-0.005192355,-0.017256944,20240202_130820_030
0.933799,4.575675,8.617152,-0.022143865,-0.003970624,-0.016035212,20240202_130820_032
0.9242278,4.5948176,8.607581,-0.023365596,-3.0543262E-4,-0.013591751,20240202_130820_035
0.91465646,4.590032,8.63151,-0.023365596,-3.0543262E-4,-0.014813482,20240202_130820_037
0.89072824,4.590032,8.617751,-0.022143865,-3.0543262E-4,-0.014813482,20240202_130820_039
0.8955139,4.5852466,8.603394,-0.022143865,0.0033597588,-0.012370021,20240202_130820_041
0.89072824,4.604389,8.603394,-0.017256944,9.162979E-4,-0.011148291,20240202_130820_042
0.89072824,4.590032,8.608179,-0.014966198,0.0033597588,-0.00992656,20240202_130820_044
0.89072824,4.604389,8.617751,-0.0125227375,0.008246681,-0.007483099,20240202_130820_048
0.8955139,4.6091747,8.636295,-0.010079277,0.004581489,-0.0062613687,20240202_130820_050
0.8859426,4.6091747,8.63151,-0.0076358155,0.004581489,-0.0062613687,20240202_130820_052
0.8668,4.6235313,8.636295,-0.005192355,0.0070249503,-0.004886922,20240202_130820_054
0.86201435,4.627719,8.641081,-0.0015271631,0.0070249503,-0.0036651916,20240202_130820_056
0.86201435,4.6372905,8.641081,0.0021380284,0.009468411,-0.002443461,20240202_130820_058
0.8572287,4.6085763,8.660223,0.0033597588,0.008246681,-0.0012217305,20240202_130820_060
0.86201435,4.604389,8.646464,0.0070249503,0.004581489,-0.0012217305,20240202_130820_062
0.84765744,4.5948176,8.636893,0.009468411,0.00580322,-0.0,20240202_130820_064
0.87637126,4.599603,8.636893,0.011911872,0.0033597588,-0.0,20240202_130820_067
0.87158567,4.604389,8.641679,0.0143553335,9.162979E-4,0.0012217305,20240202_130820_068
0.8811569,4.599603,8.641081,0.0154243475,0.0033597588,0.002443461,20240202_130820_073
0.8811569,4.6091747,8.645866,0.015577064,-0.0013744468,0.0012217305,20240202_130820_073
0.8859426,4.6037908,8.655437,0.0154243475,-0.0025961774,0.0036651916,20240202_130820_075
0.8811569,4.618148,8.650652,0.016646078,-0.0038179078,0.002443461,20240202_130820_077
0.8811569,4.6091747,8.645866,0.015577064,-0.0062613687,0.002443461,20240202_130820_080
0.87637126,4.5948176,8.641679,0.016798794,-0.00870483,0.0036651916,20240202_130820_081
0.87637126,4.5804605,8.632108,0.015577064,-0.00992656,0.002443461,20240202_130820_084
0.89072824,4.5708895,8.603394,0.015577064,-0.013591751,0.0036651916,20240202_130820_086
0.90508515,4.575675,8.5938225,0.015577064,-0.014813482,0.0036651916,20240202_130820_088
0.90508515,4.5708895,8.5938225,0.013133603,-0.013591751,0.0036651916,20240202_130820_090
0.91465646,4.5852466,8.603394,0.0106901415,-0.018478673,0.0061086523,20240202_130820_093
0.933799,4.5804605,8.602796,0.0106901415,-0.013591751,0.004886922,20240202_130820_095
0.9290134,4.5708895,8.621938,0.008246681,-0.012370021,0.007330383,20240202_130820_097
0.9194421,4.575675,8.626724,0.0070249503,-0.013591751,0.004886922,20240202_130820_099
0.933799,4.5852466,8.602796,0.00580322,-0.011148291,0.0061086523,20240202_130820_101
0.9290134,4.5708895,8.5938225,0.0021380284,-0.007483099,0.004886922,20240202_130820_104
0.933799,4.5708895,8.579466,0.0021380284,-0.007483099,0.004886922,20240202_130820_106
0.9529416,4.5708895,8.588439,-3.0543262E-4,-0.003970624,0.004886922,20240202_130820_108
0.9667004,4.5804605,8.588439,9.162979E-4,-3.0543262E-4,0.004886922,20240202_130820_110
0.971486,4.5948176,8.559725,-3.0543262E-4,-0.0015271631,0.004886922,20240202_130820_111
0.9762716,4.6091747,8.593225,-0.0027488936,-3.0543262E-4,0.002443461,20240202_130820_114
0.9762716,4.618746,8.583653,-0.005192355,0.00580322,0.002443461,20240202_130820_117
0.9619147,4.6091747,8.59801,-0.0076358155,0.0033597588,-0.0,20240202_130820_118
0.94755775,4.604389,8.602796,-0.008857546,0.00580322,-0.0013744468,20240202_130820_120
0.95712906,4.599603,8.583653,-0.0076358155,0.009468411,-0.002443461,20240202_130820_123
0.94755775,4.599603,8.59801,-0.011301007,0.0070249503,-0.0025961774,20240202_130820_124
0.948156,4.590032,8.578867,-0.013744468,0.004581489,-0.0038179078,20240202_130820_126
0.948156,4.5948176,8.578867,-0.016187929,0.0070249503,-0.0050396384,20240202_130820_129
0.94337034,4.6091747,8.588439,-0.016187929,0.00580322,-0.0050396384,20240202_130820_131
0.94337034,4.590032,8.588439,-0.016187929,9.162979E-4,-0.0050396384,20240202_130820_132
0.94755775,4.599603,8.59801,-0.01863139,9.162979E-4,-0.0062613687,20240202_130820_136
0.9523434,4.599603,8.612367,-0.01985312,0.0021380284,-0.0062613687,20240202_130820_138
0.94277215,4.6235313,8.593225,-0.020922136,-0.0076358155,-0.0062613687,20240202_130820_140
0.93320084,4.6235313,8.602796,-0.022143865,-0.003970624,-0.0062613687,20240202_130820_141
0.93320084,4.618746,8.617152,-0.020922136,-0.003970624,-0.0062613687,20240202_130820_143
0.9290134,4.604389,8.617152,-0.019700404,-0.008857546,-0.0062613687,20240202_130820_145
0.933799,4.618746,8.602796,-0.022143865,-0.010079277,-0.0062613687,20240202_130820_148
0.9194421,4.599603,8.612367,-0.019700404,-0.008857546,-0.0062613687,20240202_130820_150
0.91465646,4.590032,8.612367,-0.019700404,-0.013591751,-0.0050396384,20240202_130820_152
0.9242278,4.5804605,8.626724,-0.018478673,-0.011301007,-0.0062613687,20240202_130820_154
0.9290134,4.599603,8.63151,-0.018478673,-0.011301007,-0.0038179078,20240202_130820_156
0.9194421,4.590032,8.645866,-0.016187929,-0.012370021,-0.0038179078,20240202_130820_159
0.9098708,4.599603,8.655437,-0.016187929,-0.008857546,-0.0025961774,20240202_130820_160
0.91465646,4.599603,8.660223,-0.013744468,-0.0076358155,-0.0038179078,20240202_130820_163
0.9098708,4.590032,8.641081,-0.011301007,-0.011148291,-0.0038179078,20240202_130820_166
0.9242278,4.575675,8.63151,-0.010079277,-0.006414085,-0.0025961774,20240202_130820_167
0.91465646,4.5804605,8.626724,-0.006414085,-0.0076358155,-0.0038179078,20240202_130820_170
0.9194421,4.551747,8.626724,-0.0027488936,-0.0076358155,-0.0012217305,20240202_130820_172
0.9098708,4.575675,8.617152,-3.0543262E-4,-0.007483099,-0.002443461,20240202_130820_174
0.9098708,4.566104,8.636295,9.162979E-4,-0.0062613687,-0.0012217305,20240202_130820_177
0.90508515,4.5708895,8.645866,0.004581489,-0.0062613687,-0.0012217305,20240202_130820_178
0.91465646,4.5804605,8.650652,0.0070249503,-0.0038179078,-0.0012217305,20240202_130820_181
0.91465646,4.5804605,8.650652,0.009468411,-0.0038179078,-0.0,20240202_130820_182
0.9098708,4.575675,8.641081,0.008246681,-0.0050396384,-0.0,20240202_130820_185
0.933799,4.575675,8.645866,0.011911872,-0.0038179078,0.0012217305,20240202_130820_186
0.9290134,4.5708895,8.636295,0.013133603,-0.0025961774,0.0012217305,20240202_130820_189
0.9242278,4.5852466,8.636295,0.0143553335,-0.0050396384,0.0012217305,20240202_130820_191
0.94277215,4.590032,8.655437,0.015577064,-0.0025961774,0.0012217305,20240202_130820_193
0.9290134,4.5804605,8.645866,0.0143553335,-0.0025961774,0.0012217305,20240202_130820_195
0.9290134,4.566104,8.650652,0.019089539,-0.0025961774,0.0012217305,20240202_130820_198
0.9290134,4.5852466,8.641081,0.01786781,-0.0025961774,0.0012217305,20240202_130820_199
0.9385847,4.575675,8.63151,0.01786781,-0.0025961774,0.0012217305,20240202_130820_202
0.9379865,4.5804605,8.636295,0.019089539,-0.0025961774,0.0012217305,20240202_130820_204
0.933799,4.5708895,8.626724,0.019089539,-0.0025961774,0.0012217305,20240202_130820_206
0.9667004,4.5852466,8.607581,0.01786781,0.0021380284,-0.0012217305,20240202_130820_208
0.94277215,4.599603,8.612367,0.018020526,-1.5271631E-4,-0.002443461,20240202_130820_210
0.9379865,4.599603,8.617152,0.018020526,9.162979E-4,-0.002443461,20240202_130820_212
0.933799,4.5804605,8.607581,0.018020526,0.0033597588,-0.0036651916,20240202_130820_215
0.94755775,4.575675,8.607581,0.015577064,0.004581489,-0.0036651916,20240202_130820_217
0.9385847,4.5804605,8.602796,0.016798794,9.162979E-4,-0.0061086523,20240202_130820_219
0.94337034,4.5852466,8.593225,0.015577064,0.004581489,-0.0061086523,20240202_130820_221
0.94337034,4.566104,8.602796,0.011911872,0.004581489,-0.007330383,20240202_130820_223
0.9523434,4.590032,8.593225,0.009468411,9.162979E-4,-0.008552114,20240202_130820_226
0.94277215,4.590032,8.593225,0.008246681,0.0021380284,-0.008552114,20240202_130820_228
0.94337034,4.575675,8.560323,0.00580322,0.0033597588,-0.008552114,20240202_130820_229
0.9385847,4.5948176,8.569296,0.0021380284,-0.0015271631,-0.007330383,20240202_130820_232
0.91465646,4.590032,8.569894,-3.0543262E-4,-0.0015271631,-0.007330383,20240202_130820_234
0.933799,4.604389,8.578867,-0.0015271631,-0.0015271631,-0.007330383,20240202_130820_236
0.933799,4.599603,8.569296,-0.003970624,-0.0015271631,-0.0061086523,20240202_130820_238
0.933799,4.590032,8.583653,-0.0076358155,-0.003970624,-0.007483099,20240202_130820_240
0.9098708,4.604389,8.588439,-0.011301007,-0.003970624,-0.0062613687,20240202_130820_243
0.9098708,4.5852466,8.5938225,-0.011301007,-0.003970624,-0.0050396384,20240202_130820_245
0.8955139,4.5852466,8.589037,-0.014966198,-0.005192355,-0.0038179078,20240202_130820_247
0.90029955,4.6091747,8.569894,-0.016187929,-0.003970624,-0.0038179078,20240202_130820_249
0.8955139,4.590032,8.579466,-0.014966198,-0.0027488936,-0.0038179078,20240202_130820_252
0.9098708,4.6091747,8.579466,-0.014966198,-0.005192355,-0.0062613687,20240202_130820_254
0.90448695,4.642674,8.59801,-0.01740966,-0.003970624,-0.0038179078,20240202_130820_255
0.90508515,4.6283174,8.584251,-0.019700404,-0.003970624,-0.0050396384,20240202_130820_258
0.9236295,4.6378884,8.578867,-0.018478673,-0.003970624,-0.0050396384,20240202_130820_260
0.91405827,4.642674,8.593225,-0.01740966,-0.0015271631,-0.0050396384,20240202_130820_262
0.91405827,4.633103,8.612367,-0.016187929,-0.0027488936,-0.0038179078,20240202_130820_265
0.9098708,4.604389,8.608179,-0.01740966,-0.0027488936,-0.0025961774,20240202_130820_266
0.90029955,4.599603,8.617751,-0.016187929,-0.0027488936,-0.0013744468,20240202_130820_269
0.8955139,4.604389,8.603394,-0.014966198,-0.0015271631,-1.5271631E-4,20240202_130820_270
0.89072824,4.6091747,8.608179,-0.013744468,-0.003970624,-1.5271631E-4,20240202_130820_273
0.90508515,4.599603,8.617751,-0.0125227375,-0.0015271631,0.0010690142,20240202_130820_275
0.8955139,4.5948176,8.603394,-0.0125227375,-0.003970624,0.0035124752,20240202_130820_277
0.90029955,4.599603,8.608179,-0.008857546,-0.0038179078,0.0047342055,20240202_130820_280
0.90029955,4.604389,8.622537,-0.010079277,-0.003970624,0.005955936,20240202_130820_281
0.90029955,4.599603,8.622537,-0.0076358155,-0.0038179078,0.0071776668,20240202_130820_284
0.90508515,4.6091747,8.617152,-0.008857546,-0.0038179078,0.008399397,20240202_130820_285
0.9098708,4.5948176,8.612965,-0.0076358155,-0.0027488936,0.0096211275,20240202_130820_287
0.91465646,4.5852466,8.612965,-0.0076358155,-0.0050396384,0.008399397,20240202_130820_290
0.9236295,4.590032,8.626724,-0.006414085,-0.0038179078,0.009773844,20240202_130820_293
0.9236295,4.5948176,8.641081,-0.0076358155,-0.0038179078,0.0096211275,20240202_130820_294
0.9284152,4.6091747,8.626724,-0.0076358155,-0.0050396384,0.008399397,20240202_130820_296
0.9284152,4.5948176,8.63151,-0.006414085,-0.0050396384,0.0096211275,20240202_130820_298
0.90508515,4.590032,8.617751,-0.006414085,-0.0027488936,0.009773844,20240202_130820_301
0.90508515,4.5948176,8.617751,-0.005192355,-0.0015271631,0.009773844,20240202_130820_302
0.9194421,4.575675,8.622537,-0.005192355,-0.0025961774,0.010995574,20240202_130820_305
0.93320084,4.575675,8.63151,-0.005192355,9.162979E-4,0.010995574,20240202_130820_307
0.9242278,4.566104,8.608179,-0.005192355,-3.0543262E-4,0.010995574,20240202_130820_309
0.93320084,4.5852466,8.612367,-0.003970624,9.162979E-4,0.010995574,20240202_130820_312
0.94277215,4.5708895,8.621938,-0.003970624,0.004581489,0.009773844,20240202_130820_314
0.9619147,4.5804605,8.617152,-0.003970624,0.0021380284,0.009773844,20240202_130820_315
0.9523434,4.5948176,8.612367,-0.0027488936,0.0021380284,0.008552114,20240202_130820_318
0.971486,4.590032,8.63151,-0.005192355,0.004581489,0.008552114,20240202_130820_320
0.9667004,4.5708895,8.636295,-0.0027488936,0.0033597588,0.007330383,20240202_130820_322
0.9619147,4.5852466,8.621938,-0.003970624,0.0033597588,0.004886922,20240202_130820_324
0.9667004,4.5708895,8.621938,-0.003970624,0.0033597588,0.0036651916,20240202_130820_326
0.9667004,4.5708895,8.621938,-0.003970624,-3.0543262E-4,0.002443461,20240202_130820_329
0.971486,4.566104,8.617152,-0.003970624,9.162979E-4,0.0012217305,20240202_130820_331
0.9762716,4.5613184,8.602796,-0.006414085,0.0021380284,0.0012217305,20240202_130820_333
0.95712906,4.5565324,8.617152,-0.0076358155,-0.0027488936,-1.5271631E-4,20240202_130820_334
0.95712906,4.5565324,8.612367,-0.006414085,-0.0027488936,-1.5271631E-4,20240202_130820_337
0.9762716,4.5613184,8.626724,-0.008857546,-3.0543262E-4,-0.0013744468,20240202_130820_339
0.9619147,4.5565324,8.607581,-0.0076358155,-0.0027488936,-0.0013744468,20240202_130820_342
0.9529416,4.5469613,8.612965,-0.0076358155,-0.0050396384,-0.0025961774,20240202_130820_343
0.9529416,4.532604,8.617751,-0.0076358155,-0.003970624,-0.0038179078,20240202_130820_345
0.9619147,4.551747,8.617152,-0.0076358155,-0.0050396384,-0.0038179078,20240202_130820_348
0.948156,4.5469613,8.617751,-0.005192355,-0.0062613687,-0.0038179078,20240202_130820_350
0.971486,4.5565324,8.626724,-0.003970624,-0.0050396384,-0.0050396384,20240202_130820_352
0.9619147,4.5613184,8.636295,-0.003970624,-0.0050396384,-0.0038179078,20240202_130820_354
0.9667004,4.5804605,8.636295,-0.003970624,-0.0050396384,-0.0050396384,20240202_130820_357
0.971486,4.5942197,8.650652,-0.003970624,-0.007483099,-0.0050396384,20240202_130820_359
0.9523434,4.6037908,8.655437,-0.005192355,-0.0038179078,-0.0062613687,20240202_130820_361
0.94277215,4.5948176,8.645866,-0.003970624,-0.0050396384,-0.0062613687,20240202_130820_363
0.9379865,4.590032,8.641081,-0.003970624,-0.0050396384,-0.00870483,20240202_130820_366
0.93320084,4.590032,8.636295,-0.0027488936,-0.0050396384,-0.00992656,20240202_130820_367
0.9242278,4.5708895,8.641081,-3.0543262E-4,-0.0027488936,-0.009773844,20240202_130820_369
0.9290134,4.5804605,8.626724,0.0021380284,-0.0038179078,-0.009773844,20240202_130820_371
0.9242278,4.5613184,8.612965,0.0021380284,-0.0050396384,-0.010995574,20240202_130820_373
0.9290134,4.566104,8.627322,0.0033597588,-0.0050396384,-0.010995574,20240202_130820_376
0.9236295,4.5894337,8.660223,0.00580322,-0.0038179078,-0.009773844,20240202_130820_378
0.9194421,4.575675,8.632108,0.004581489,-0.0025961774,-0.009773844,20240202_130820_381
0.9194421,4.590032,8.641081,0.00580322,9.162979E-4,-0.009773844,20240202_130820_382
0.91405827,4.599005,8.645866,0.0070249503,-3.0543262E-4,-0.009773844,20240202_130820_384
0.90508515,4.5942197,8.650652,0.009468411,0.004581489,-0.007330383,20240202_130820_386
0.90029955,4.5948176,8.632108,0.009468411,0.004581489,-0.007330383,20240202_130820_388
0.8955139,4.5948176,8.632108,0.009468411,0.0070249503,-0.007330383,20240202_130820_390
0.8955139,4.590032,8.622537,0.011911872,0.0070249503,-0.007330383,20240202_130820_393
0.90508515,4.5852466,8.632108,0.0106901415,0.0070249503,-0.004886922,20240202_130820_394
0.8955139,4.599603,8.627322,0.0106901415,0.011911872,-0.004886922,20240202_130820_396
0.87637126,4.5852466,8.622537,0.009468411,0.009468411,-0.004886922,20240202_130820_399
0.8859426,4.604389,8.636893,0.008246681,0.008246681,-0.002443461,20240202_130820_401
0.8859426,4.5948176,8.632108,0.0070249503,0.0106901415,-0.0012217305,20240202_130820_403
0.87158567,4.604389,8.632108,0.00580322,0.009468411,-0.0012217305,20240202_130820_406
0.86201435,4.5948176,8.608179,0.0070249503,0.0070249503,-0.0,20240202_130820_408
0.86201435,4.5852466,8.589037,0.004581489,0.009468411,-0.0012217305,20240202_130820_410
0.86201435,4.5852466,8.5938225,0.0033597588,0.00580322,-0.0,20240202_130820_412
0.8859426,4.5852466,8.589037,0.004581489,0.0033597588,0.0012217305,20240202_130820_414
0.8811569,4.590032,8.617751,0.0033597588,0.004581489,0.0012217305,20240202_130820_417
0.8859426,4.5948176,8.603394,9.162979E-4,0.0033597588,0.0036651916,20240202_130820_418
0.8811569,4.6091747,8.589037,9.162979E-4,0.0021380284,0.0036651916,20240202_130820_421
0.87158567,4.604389,8.622537,-0.0015271631,0.0021380284,0.0036651916,20240202_130820_423
0.87158567,4.604389,8.5938225,-0.0015271631,0.0021380284,0.004886922,20240202_130820_426
0.8811569,4.5852466,8.617751,-0.0027488936,-3.0543262E-4,0.0061086523,20240202_130820_427
0.8811569,4.575675,8.632108,-0.003970624,9.162979E-4,0.007330383,20240202_130820_429
0.8811569,4.5708895,8.627322,-0.003970624,9.162979E-4,0.007330383,20240202_130820_431
0.90029955,4.575675,8.612965,-0.003970624,-0.0015271631,0.007330383,20240202_130820_433
0.90508515,4.590032,8.632108,-0.003970624,-0.0025961774,0.008552114,20240202_130820_436
0.91465646,4.5804605,8.627322,-0.003970624,-0.0015271631,0.009773844,20240202_130820_438
0.9236295,4.599603,8.63151,-0.0027488936,-3.0543262E-4,0.009773844,20240202_130820_440
0.9379865,4.5948176,8.626724,-0.005192355,-0.0050396384,0.010995574,20240202_130820_442
0.9284152,4.590032,8.612367,-0.003970624,-0.0038179078,0.010995574,20240202_130820_444
0.9194421,4.5948176,8.603394,-0.003970624,-0.0015271631,0.010995574,20240202_130820_446
0.9379865,4.590032,8.607581,-0.0027488936,-0.0062613687,0.010995574,20240202_130820_449
0.933799,4.5708895,8.603394,-0.0027488936,-0.0062613687,0.010995574,20240202_130820_451
0.9379865,4.5852466,8.603394,-0.0027488936,-0.0025961774,0.009773844,20240202_130820_453
0.9619147,4.5948176,8.588439,-0.0015271631,-0.0038179078,0.008552114,20240202_130820_456
0.9810573,4.590032,8.612367,-0.003970624,-0.0038179078,0.009773844,20240202_130820_457
0.95712906,4.604389,8.617152,-0.003970624,9.162979E-4,0.007330383,20240202_130820_460
0.9810573,4.590032,8.607581,-0.005192355,-3.0543262E-4,0.0061086523,20240202_130820_462
0.9762716,4.575675,8.63151,-0.003970624,9.162979E-4,0.007330383,20240202_130820_464
0.971486,4.5852466,8.612367,-0.003970624,9.162979E-4,0.0061086523,20240202_130820_466
0.9762716,4.566104,8.626724,-0.005192355,0.004581489,0.0061086523,20240202_130820_468
0.971486,4.5613184,8.608179,-0.003970624,0.0033597588,0.0061086523,20240202_130820_470
0.971486,4.5469613,8.603394,-0.003970624,0.004581489,0.0036651916,20240202_130820_472
0.98584294,4.551747,8.603394,-0.0027488936,0.004581489,0.004886922,20240202_130820_475
0.98584294,4.551747,8.598608,-0.0015271631,0.0033597588,0.0036651916,20240202_130820_479
1.0001999,4.575675,8.612367,-0.0015271631,0.00580322,0.0036651916,20240202_130820_479
1.0001999,4.5948176,8.621938,-0.0015271631,0.004581489,0.0012217305,20240202_130820_481
0.9954142,4.590032,8.621938,-0.0015271631,0.00580322,-0.0,20240202_130820_483
0.9762716,4.590032,8.617152,-0.0027488936,0.00580322,-0.002443461,20240202_130820_485
0.9810573,4.590032,8.636295,-0.0027488936,0.00580322,-0.0036651916,20240202_130820_487
0.9762716,4.5613184,8.626724,-0.005192355,0.0070249503,-0.0061086523,20240202_130820_489
0.9619147,4.5565324,8.598608,-0.0027488936,0.0070249503,-0.007330383,20240202_130820_491
0.971486,4.551747,8.612965,-0.0015271631,0.0021380284,-0.008552114,20240202_130820_494
0.971486,4.551747,8.617751,-3.0543262E-4,0.0033597588,-0.009773844,20240202_130820_495
0.9667004,4.5469613,8.608179,9.162979E-4,0.0021380284,-0.009773844,20240202_130820_497
0.95712906,4.5469613,8.617751,0.0021380284,9.162979E-4,-0.009773844,20240202_130820_500
0.95712906,4.566104,8.63151,0.0033597588,0.0021380284,-0.010995574,20240202_130820_502
0.94755775,4.5894337,8.645866,0.0033597588,0.0033597588,-0.010995574,20240202_130820_504
0.9523434,4.5894337,8.660223,0.0033597588,0.0021380284,-0.010995574,20240202_130820_507
0.94277215,4.6037908,8.650652,0.004581489,0.0021380284,-0.010995574,20240202_130820_510
0.94277215,4.6085763,8.650652,0.004581489,0.0033597588,-0.012217305,20240202_130820_511
0.9379865,4.613362,8.660223,0.004581489,0.0033597588,-0.013439035,20240202_130820_513
0.93320084,4.618148,8.655437,0.004581489,0.004581489,-0.014660766,20240202_130820_516
0.91884387,4.618148,8.641081,0.0070249503,0.0070249503,-0.014660766,20240202_130820_517
0.91884387,4.6091747,8.603394,0.004581489,0.0033597588,-0.015882496,20240202_130820_519
0.91405827,4.604389,8.617751,0.00580322,0.004581489,-0.014660766,20240202_130820_522
0.91465646,4.5804605,8.622537,0.0070249503,0.0070249503,-0.013439035,20240202_130820_524
0.90029955,4.566104,8.622537,0.008246681,0.004581489,-0.012217305,20240202_130820_526
0.8955139,4.566104,8.617751,0.0070249503,0.0033597588,-0.012217305,20240202_130820_529
0.9194421,4.566104,8.612965,0.0070249503,0.00580322,-0.012217305,20240202_130820_530
0.94277215,4.5852466,8.603394,0.008246681,9.162979E-4,-0.008552114,20240202_130820_535
0.9236295,4.6091747,8.57468,0.009468411,9.162979E-4,-0.008552114,20240202_130820_535
0.89072824,4.5948176,8.579466,0.008246681,0.0021380284,-0.007330383,20240202_130820_537
0.87158567,4.590032,8.589037,0.0070249503,-1.5271631E-4,-0.007330383,20240202_130820_538
0.87158567,4.590032,8.608179,0.00580322,9.162979E-4,-0.009773844,20240202_130820_541
0.8859426,4.599603,8.612965,0.004581489,0.0033597588,-0.007330383,20240202_130820_543
0.90508515,4.599603,8.612965,0.0021380284,9.162979E-4,-0.010995574,20240202_130820_545
0.8955139,4.599603,8.617751,-3.0543262E-4,9.162979E-4,-0.009773844,20240202_130820_547
0.8859426,4.5852466,8.608179,-0.0015271631,0.0033597588,-0.009773844,20240202_130820_550
0.8955139,4.599603,8.598608,-0.0027488936,9.162979E-4,-0.010995574,20240202_130820_551
0.90029955,4.5804605,8.5938225,-0.003970624,-3.0543262E-4,-0.00870483,20240202_130820_553
0.8955139,4.575675,8.569894,-0.003970624,9.162979E-4,-0.00992656,20240202_130820_556
0.90029955,4.5708895,8.57468,-0.006414085,-0.0038179078,-0.00992656,20240202_130820_558
0.90508515,4.575675,8.5938225,-0.0076358155,-0.0038179078,-0.00870483,20240202_130820_560
0.90029955,4.575675,8.598608,-0.0076358155,-0.0038179078,-0.0062613687,20240202_130820_562
0.90029955,4.566104,8.622537,-0.0076358155,-0.0027488936,-0.00870483,20240202_130820_564
0.91465646,4.5804605,8.612965,-0.010079277,-0.0050396384,-0.0062613687,20240202_130820_566
0.89072824,4.5804605,8.617751,-0.0125227375,-0.003970624,-0.0062613687,20240202_130820_569
0.89072824,4.566104,8.603394,-0.0125227375,-0.0050396384,-0.0062613687,20240202_130820_571
0.8955139,4.5708895,8.608179,-0.0125227375,-0.0027488936,-0.0038179078,20240202_130820_572
0.89072824,4.5708895,8.612965,-0.0125227375,-0.003970624,-0.0038179078,20240202_130820_575
0.90508515,4.5469613,8.617751,-0.011301007,-0.0027488936,-0.0025961774,20240202_130820_577
0.8811569,4.5565324,8.632108,-0.011301007,-0.003970624,-0.0025961774,20240202_130820_580
0.90029955,4.5613184,8.636893,-0.008857546,-0.0027488936,-0.0013744468,20240202_130820_581
0.8955139,4.5708895,8.65125,-0.0076358155,-0.0038179078,0.0010690142,20240202_130820_583
0.89072824,4.566104,8.665607,-0.003970624,-0.003970624,0.0012217305,20240202_130820_585
0.8811569,4.5708895,8.670393,-0.0015271631,-0.0015271631,0.0036651916,20240202_130820_588
0.8811569,4.551747,8.656036,0.0021380284,-0.0015271631,0.0036651916,20240202_130820_590
0.8859426,4.5708895,8.641679,0.004581489,-0.0013744468,0.0061086523,20240202_130820_592
0.90508515,4.575675,8.655437,0.008093964,9.162979E-4,0.0061086523,20240202_130820_594
0.90508515,4.5804605,8.650652,0.010537425,0.0021380284,0.007330383,20240202_130820_596
0.89072824,4.5942197,8.665009,0.0154243475,0.0010690142,0.007330383,20240202_130820_598
0.90508515,4.5894337,8.669795,0.016646078,0.0021380284,0.007330383,20240202_130820_601
0.9092726,4.613362,8.669795,0.02031127,0.004581489,0.00870483,20240202_130820_602
0.91405827,4.6229334,8.660223,0.02031127,0.0033597588,0.007483099,20240202_130820_605
0.91405827,4.618148,8.655437,0.02275473,0.004581489,0.00870483,20240202_130820_607
0.9236295,4.627719,8.641081,0.021533,0.00580322,0.0062613687,20240202_130820_609
0.9284152,4.6091747,8.636295,0.02275473,0.0070249503,0.0062613687,20240202_130820_611
0.9098708,4.5948176,8.636295,0.02275473,0.0033597588,0.007483099,20240202_130820_613
0.9194421,4.590032,8.63151,0.02397646,0.0070249503,0.007483099,20240202_130820_615
0.9290134,4.5804605,8.607581,0.025198191,0.0070249503,0.0062613687,20240202_130820_617
0.9242278,4.5708895,8.603394,0.02275473,0.0022907446,0.007483099,20240202_130820_620
0.933799,4.575675,8.607581,0.02397646,0.0070249503,0.007483099,20240202_130820_623
0.94337034,4.566104,8.584251,0.02275473,0.0070249503,0.007483099,20240202_130820_625
0.9619147,4.566104,8.593225,0.021533,0.004581489,0.00870483,20240202_130820_626
0.9762716,4.575675,8.593225,0.01786781,0.00580322,0.007483099,20240202_130820_629
0.9523434,4.5852466,8.569296,0.01786781,0.008246681,0.007483099,20240202_130820_630
0.9619147,4.599603,8.559725,0.0154243475,0.004581489,0.0061086523,20240202_130820_633
0.9762716,4.5852466,8.56451,0.011759156,0.00580322,0.004886922,20240202_130820_636
0.9667004,4.590032,8.56451,0.009468411,0.008246681,0.0012217305,20240202_130820_637
0.9762716,4.5948176,8.569296,0.0070249503,0.00580322,0.0012217305,20240202_130820_639
0.971486,4.5948176,8.578867,0.0021380284,0.004581489,-0.0,20240202_130820_641
0.9667004,4.590032,8.588439,-0.0015271631,0.00580322,-0.0012217305,20240202_130820_643
0.94755775,4.6139603,8.578867,-0.006414085,0.0033597588,-0.0036651916,20240202_130820_645
0.94755775,4.599603,8.555537,-0.0076358155,-3.0543262E-4,-0.0038179078,20240202_130820_648
0.9619147,4.5948176,8.56451,-0.013744468,-3.0543262E-4,-0.0062613687,20240202_130820_650
0.9523434,4.5948176,8.559725,-0.016187929,-0.0015271631,-0.0062613687,20240202_130820_652
0.9523434,4.590032,8.560323,-0.017256944,-0.00870483,-0.007483099,20240202_130820_655
0.9523434,4.5852466,8.550752,-0.020922136,-0.00870483,-0.007483099,20240202_130820_656
0.9379865,4.599603,8.579466,-0.022143865,-0.00870483,-0.0062613687,20240202_130820_659
0.94277215,4.604389,8.569894,-0.023365596,-0.013591751,-0.007483099,20240202_130820_661
0.91884387,4.6091747,8.607581,-0.025809057,-0.012370021,-0.006414085,20240202_130820_663
0.90508515,4.599603,8.612965,-0.024587326,-0.00992656,-0.0050396384,20240202_130820_665
0.9098708,4.5948176,8.622537,-0.023365596,-0.00992656,-0.0062613687,20240202_130820_667
0.90508515,4.5948176,8.617751,-0.024587326,-0.00992656,-0.0050396384,20240202_130820_670
0.93320084,4.604389,8.602796,-0.023365596,-0.0076358155,-0.0038179078,20240202_130820_673
0.93320084,4.618746,8.617152,-0.020922136,-0.0076358155,-0.0050396384,20240202_130820_673
0.9236295,4.627719,8.636295,-0.01863139,-0.006414085,-0.0025961774,20240202_130820_676
0.91884387,4.627719,8.641081,-0.01740966,-0.003970624,-0.0038179078,20240202_130820_678
0.91405827,4.627719,8.641081,-0.013744468,-0.0015271631,-0.0025961774,20240202_130820_680
0.91405827,4.6037908,8.665009,-0.008857546,9.162979E-4,-0.0025961774,20240202_130820_682
